# IKS4A1 

time[us],acc_x[mg],acc_y[mg],acc_z[mg],gyro_x[mdps],gyro_y[mdps],gyro_z[mdps]
501456641,617,-106,607,-35,297,-363
501461906,734,-167,932,-35,297,-363
501467171,784,-203,592,-35,297,-363
501472436,737,-135,763,-35,297,-363
501477700,587,-123,968,-35,297,-363
501482965,691,-142,683,-35,297,-363
501488231,788,-147,695,-35,297,-363
501493496,746,-166,842,-35,297,-363
501498761,585,-100,693,-35,297,-363
501504026,680,-97,656,-35,297,-363
501509289,737,-164,780,-35,297,-363
501514555,672,-173,831,-35,297,-363
501519819,627,-133,586,-35,297,-363
501525084,671,-130,698,-35,297,-363
501530350,697,-123,611,-35,297,-363
501535614,676,-97,585,-35,297,-363
501541098,691,-152,943,-35,297,-363
501546362,792,-211,621,-35,297,-363
501551627,664,-143,702,-35,297,-363
501556893,609,-100,945,-35,297,-363
501562159,701,-156,688,-35,297,-363
501567423,806,-217,651,-35,297,-363
501572688,730,-160,872,-35,297,-367
501578271,579,-85,662,-35,297,-367
501583535,673,-109,669,-35,297,-367
501588800,724,-158,687,-35,297,-367
501594065,652,-135,792,-35,297,-367
501599329,656,-153,641,-35,297,-367
501604594,688,-173,653,-35,297,-367
501609859,689,-145,607,-35,297,-367
501615124,622,-130,620,-35,297,-367
501620388,725,-169,856,-35,297,-367
501625653,815,-190,640,-35,297,-367
501630919,712,-103,779,-35,297,-367
501636402,581,-112,976,-35,297,-367
501641668,673,-144,559,-35,297,-367
501646933,806,-161,698,-35,297,-367
501652198,712,-170,741,-35,297,-367
501657462,577,-89,649,-35,297,-367
501662726,639,-113,682,-35,297,-367
501667990,720,-149,699,-35,297,-367
501673255,703,-149,767,-35,297,-367
501678519,663,-156,655,-35,297,-367
501683784,741,-186,666,-35,297,-367
501689049,690,-164,653,-35,297,-367
501694313,622,-113,616,-35,297,-367
501699578,748,-142,923,-35,297,-367
501704843,810,-189,634,-35,297,-367
501710107,689,-104,693,-35,297,-367
501715371,545,-85,938,-17,328,-367
501720954,667,-113,571,-17,328,-367
501726218,763,-159,751,-17,328,-367
501731483,686,-198,884,-17,328,-367
501736967,630,-123,602,-17,328,-367
501742232,712,-114,676,-17,328,-367
501747496,698,-138,581,-17,328,-367
501752761,657,-132,716,-17,328,-367
501758026,725,-161,806,-17,328,-367
501763289,798,-195,642,-17,328,-367
501768555,721,-95,659,-17,328,-367
501773819,581,-123,963,-17,328,-367
501779085,725,-147,575,-17,328,-367
501784349,804,-166,680,-17,328,-367
501789614,706,-200,880,-17,328,-367
501794880,579,-98,628,-17,328,-367
501800144,639,-110,690,-17,328,-367
501805409,734,-176,642,-17,328,-367
501810673,687,-111,687,-17,328,-367
501815941,668,-157,700,-17,328,-367
501821207,734,-207,645,-17,328,-367
501826470,659,-96,717,-17,328,-367
501831954,606,-108,844,-17,328,-367
501837218,730,-166,697,-17,328,-367
501842483,808,-211,690,-17,328,-367
501847748,681,-105,675,-17,328,-367
501853014,565,-99,599,-17,345,-358
501858596,650,-102,724,-17,345,-358
501863861,732,-162,649,-17,345,-358
501869126,695,-117,640,-17,345,-358
501874390,678,-157,761,-17,345,-358
501879655,738,-196,595,-17,345,-358
501884921,673,-81,704,-17,345,-358
501890185,624,-142,902,-17,345,-358
501895450,759,-159,823,-17,345,-358
501900714,813,-197,744,-17,345,-358
501905979,687,-162,737,-17,345,-358
501911243,558,-71,688,-17,345,-358
501916507,679,-131,661,-17,345,-358
501921771,759,-207,631,-17,345,-358
501927035,692,-128,751,-17,345,-358
501932518,663,-158,789,-17,345,-358
501937783,716,-183,591,-17,345,-358
501943047,653,-82,788,-17,345,-358
501948312,626,-115,806,-17,345,-358
501953577,739,-181,685,-17,345,-358
501958842,807,-192,718,-17,345,-358
501964106,664,-103,632,-17,345,-358
501969371,560,-83,717,-17,345,-358
501974636,654,-93,691,-17,345,-358
501979902,768,-193,648,-17,345,-358
501985166,727,-138,789,-17,345,-358
501990431,658,-147,682,-17,345,-358
501995696,712,-173,601,-56,271,-345
502001278,691,-79,771,-56,271,-345
502006543,621,-149,967,-56,271,-345
502011807,749,-177,735,-56,271,-345
502017072,802,-171,705,-56,271,-345
502022337,653,-94,622,-56,271,-345
502027820,575,-102,612,-56,271,-345
502033085,659,-106,708,-56,271,-345
502038350,736,-164,642,-56,271,-345
502043615,695,-134,644,-56,271,-345
502048881,678,-160,753,-56,271,-345
502054147,739,-182,606,-56,271,-345
502059411,687,-81,779,-56,271,-345
502064676,602,-145,943,-56,271,-345
502069941,744,-175,729,-56,271,-345
502075206,807,-164,734,-56,271,-345
502080470,659,-113,843,-56,271,-345
502085735,586,-106,603,-56,271,-345
502091000,667,-93,704,-56,271,-345
502096458,726,-152,632,-56,271,-345
502101723,700,-150,678,-56,271,-345
502106988,694,-149,867,-56,271,-345
502112252,743,-189,599,-56,271,-345
502117517,686,-73,620,-56,271,-345
502122782,618,-120,604,-61,266,-354
502149991,704,-134,621,-61,266,-354
502155256,681,-88,727,-61,266,-354
502160521,634,-113,915,-61,266,-354
502165785,761,-165,789,-61,266,-354
502171050,783,-172,733,-61,266,-354
502176314,657,-124,742,-61,266,-354
502181580,559,-79,641,-61,266,-354
502186845,668,-126,692,-61,266,-354
502192109,757,-200,666,-61,266,-354
502197373,727,-150,801,-61,266,-354
502202638,671,-156,763,-61,266,-354
502207904,710,-162,631,-61,266,-354
502213168,696,-81,777,-61,266,-354
502218433,629,-117,733,-61,266,-354
502223917,750,-183,701,-61,266,-354
502229181,806,-168,748,-61,266,-354
502234446,647,-103,585,-61,266,-354
502239710,574,-93,624,-61,266,-354
502244975,651,-100,686,-61,266,-354
502250239,733,-162,631,-61,266,-354
502255503,727,-126,632,-61,266,-354
502260769,687,-158,757,-61,266,-354
502266034,710,-183,615,-61,266,-354
502271298,679,-68,797,-61,266,-354
502276562,578,-130,930,-17,350,-367
502282146,702,-156,619,-17,350,-367
502287411,804,-160,726,-17,350,-367
502292677,671,-167,803,-17,350,-367
502297944,599,-101,627,-17,350,-367
502303210,679,-91,695,-17,350,-367
502308476,735,-159,683,-17,350,-367
502313743,706,-157,705,-17,350,-367
502319009,713,-175,883,-17,350,-367
502324494,765,-199,676,-17,350,-367
502329759,668,-80,662,-17,350,-367
502335026,553,-91,839,-17,350,-367
502340289,698,-148,630,-17,350,-367
502345556,765,-170,639,-17,350,-367
502350823,677,-155,709,-17,350,-367
502356089,626,-128,614,-17,350,-367
502361356,682,-92,666,-17,350,-367
502366621,666,-120,695,-17,350,-367
502371888,684,-145,718,-17,350,-367
502377153,781,-168,902,-17,350,-367
502382419,763,-200,621,-17,350,-367
502387685,685,-122,737,-17,350,-367
502392952,556,-101,788,-17,350,-367
502398218,690,-155,651,-17,350,-367
502403484,804,-181,657,-17,350,-367
502408749,678,-153,695,-17,350,-367
502414014,652,-129,671,-17,350,-367
502419497,679,-167,641,-48,280,-345
502425079,693,-91,749,-48,280,-345
502430344,626,-110,742,-48,280,-345
502435609,755,-177,746,-48,280,-345
502440874,801,-193,743,-48,280,-345
502446139,656,-107,609,-48,280,-345
502451403,555,-70,713,-48,280,-345
502456667,646,-101,689,-48,280,-345
502461933,762,-183,613,-48,280,-345
502467198,734,-153,784,-48,280,-345
502472462,641,-130,764,-48,280,-345
502477726,713,-157,643,-48,280,-345
502482991,659,-83,715,-48,280,-345
502488255,613,-95,693,-48,280,-345
502493519,749,-170,788,-48,280,-345
502498784,804,-191,696,-48,280,-345
502504049,657,-117,676,-48,280,-345
502509314,580,-85,793,-48,280,-345
502514578,662,-108,691,-48,280,-345
502520062,743,-173,625,-48,280,-345
502525326,733,-141,804,-48,280,-345
502530591,683,-163,742,-48,280,-345
502535856,719,-153,670,-48,280,-345
502541121,685,-91,753,-48,280,-345
502546386,629,-108,677,-48,280,-345
502551653,759,-159,785,-48,280,-345
502556919,806,-193,679,-48,280,-345
502562184,694,-140,806,-35,258,-358
502567766,564,-86,648,-35,258,-358
502573032,674,-97,640,-35,258,-358
502578296,767,-202,664,-35,258,-358
502583561,722,-129,722,-35,258,-358
502588826,663,-152,709,-35,258,-358
502594090,716,-182,598,-35,258,-358
502599354,660,-86,747,-35,258,-358
502604618,614,-138,819,-35,258,-358
502609884,763,-164,806,-35,258,-358
502615367,815,-198,707,-35,258,-358
502620632,680,-124,615,-35,258,-358
502625898,571,-79,727,-35,258,-358
502631163,648,-96,691,-35,258,-358
502636427,749,-165,684,-35,258,-358
502641691,717,-146,768,-35,258,-358
502646957,639,-139,600,-35,258,-358
502652221,717,-157,694,-35,258,-358
502657485,680,-152,696,-35,258,-358
502662750,624,-106,601,-35,258,-358
502668017,784,-157,833,-35,258,-358
502673281,812,-195,692,-35,258,-358
502678548,698,-160,732,-35,258,-358
502683813,556,-74,876,-35,258,-358
502689077,672,-125,710,-35,258,-358
502694342,779,-150,668,-35,258,-358
502699607,672,-148,644,-35,258,-358
502704872,620,-107,640,-17,336,-363
502710454,694,-104,623,-17,336,-363
502715938,639,-114,650,-17,336,-363
502721202,607,-97,677,-17,336,-363
502726466,789,-183,891,-17,336,-363
502731731,814,-197,645,-17,336,-363
502736996,661,-66,869,-17,336,-363
502742260,546,-86,906,-17,336,-363
502747525,691,-138,683,-17,336,-363
502752789,785,-151,716,-17,336,-363
502758054,661,-137,670,-17,336,-363
502763318,611,-115,594,-17,336,-363
502768583,678,-97,625,-17,336,-363
502773848,710,-129,578,-17,336,-363
502779114,671,-140,705,-17,336,-363
502784378,714,-163,782,-17,336,-363
502789643,785,-210,629,-17,336,-363
502794908,688,-67,846,-17,336,-363
502800173,584,-138,955,-17,336,-363
502805438,721,-156,613,-17,336,-363
502810922,811,-190,746,-17,336,-363
502816187,706,-175,720,-17,336,-363
502821451,566,-109,604,-17,336,-363
502826715,635,-90,646,-17,336,-363
502831980,704,-132,568,-17,336,-363
502837245,714,-139,771,-17,336,-363
502842509,695,-141,754,-30,319,-358
502848092,760,-217,633,-30,319,-358
502853357,665,-81,718,-30,319,-358
502858621,608,-115,884,-30,319,-358
502863887,759,-146,968,-30,319,-358
502869152,811,-217,697,-30,319,-358
502874416,700,-124,711,-30,319,-358
502879681,569,-107,832,-30,319,-358
502884948,668,-100,624,-30,319,-358
502890211,768,-162,746,-30,319,-358
502895476,693,-141,688,-30,319,-358
502900740,616,-133,645,-30,319,-358
502906005,720,-113,686,-30,319,-358
502911488,671,-137,701,-30,319,-358
502916753,636,-117,746,-30,319,-358
502922017,757,-175,937,-30,319,-358
502927281,786,-203,551,-30,319,-358
502932546,687,-66,732,-30,319,-358
502937811,600,-137,983,-30,319,-358
502943075,690,-164,599,-30,319,-358
502948339,793,-189,638,-30,319,-358
502953605,685,-116,697,-30,319,-358
502958870,568,-119,744,-30,319,-358
502964136,632,-95,613,-30,319,-358
502969401,771,-180,649,-30,319,-358
502974666,686,-132,644,-30,319,-358
502979931,645,-162,624,-30,319,-358
502985196,731,-120,651,-43,258,-354
502990778,706,-176,701,-43,258,-354
502996043,595,-110,560,-43,258,-354
503001307,750,-171,884,-43,258,-354
503006790,824,-199,696,-43,258,-354
503012054,691,-84,619,-43,258,-354
503017318,542,-85,879,-43,258,-354
503022583,654,-111,594,-43,258,-354
503027848,793,-143,610,-43,258,-354
503033113,677,-183,719,-43,258,-354
503038378,610,-91,714,-43,258,-354
503043642,656,-125,618,-43,258,-354
503048908,734,-186,460,-43,258,-354
503054173,695,-126,816,-43,258,-354
503059438,663,-157,680,-43,258,-354
503064703,765,-183,690,-43,258,-354
503069968,657,-86,651,-43,258,-354
503075232,606,-105,658,-43,258,-354
503080496,758,-148,939,-43,258,-354
503085761,823,-200,603,-43,258,-354
503091026,718,-99,761,-43,258,-354
503096290,602,-111,1037,-43,258,-354
503101555,686,-164,608,-43,258,-354
503107039,797,-119,684,-43,258,-354
503112303,692,-122,793,-43,258,-354
503117568,602,-83,669,-43,258,-354
503122832,762,-171,697,-56,275,-350
503149772,694,-151,625,-56,275,-350
503155229,581,-86,566,-56,275,-350
503160494,766,-112,936,-56,275,-350
503165758,831,-214,588,-56,275,-350
503171023,709,-96,663,-56,275,-350
503176287,583,-112,956,-56,275,-350
503181553,677,-119,512,-56,275,-350
503186817,785,-152,649,-56,275,-350
503192083,683,-124,608,-56,275,-350
503197347,601,-102,757,-56,275,-350
503202830,659,-126,646,-56,275,-350
503208095,685,-123,554,-56,275,-350
503213359,658,-118,677,-56,275,-350
503218624,687,-168,598,-56,275,-350
503223890,730,-126,705,-56,275,-350
503229154,713,-153,602,-56,275,-350
503234419,607,-74,718,-56,275,-350
503239683,711,-169,878,-56,275,-350
503244948,760,-218,605,-56,275,-350
503250213,693,-86,697,-56,275,-350
503255477,590,-94,675,-56,275,-350
503260741,726,-120,761,-56,275,-350
503266007,828,-196,636,-30,266,-358
503271589,742,-148,725,-30,266,-358
503276855,550,-137,807,-30,266,-358
503282119,652,-76,631,-30,266,-358
503287384,769,-101,770,-30,266,-358
503292649,707,-193,818,-30,266,-358
503297915,607,-85,612,-30,266,-358
503303397,649,-142,728,-30,266,-358
503308662,688,-136,551,-30,266,-358
503313927,628,-130,622,-30,266,-358
503319191,684,-151,728,-30,266,-358
503324455,743,-125,636,-30,266,-358
503329720,725,-193,564,-30,266,-358
503334984,584,-54,566,-30,266,-358
503340248,677,-165,882,-30,266,-358
503345514,799,-234,755,-30,266,-358
503350779,660,-83,460,-30,266,-358
503356044,622,-110,697,-30,266,-358
503361308,744,-122,861,-30,266,-358
503366573,819,-195,486,-30,266,-358
503371838,753,-108,896,-30,266,-358
503377103,561,-145,903,-30,266,-358
503382368,690,-135,669,-30,266,-358
503387633,783,-131,633,-30,266,-358
503392899,766,-166,988,-30,266,-358
503398166,588,-145,779,-30,266,-358
503403650,688,-124,644,-30,266,-358
503408915,786,-163,869,-52,293,-358
503414497,664,-184,805,-52,293,-358
503419762,601,-127,484,-52,293,-358
503425026,691,-143,704,-52,293,-358
503430291,727,-142,556,-52,293,-358
503435556,616,-113,582,-52,293,-358
503440820,683,-119,749,-52,293,-358
503446085,749,-217,759,-52,293,-358
503451349,713,-166,526,-52,293,-358
503456614,598,-113,648,-52,293,-358
503461879,689,-178,930,-52,293,-358
503467144,795,-181,519,-52,293,-358
503472408,697,-160,540,-52,293,-358
503477673,624,-76,842,-52,293,-358
503482939,715,-124,923,-52,293,-358
503488203,827,-216,620,-52,293,-358
503493467,744,-140,664,-52,293,-358
503498950,599,-128,1165,-52,293,-358
503504215,685,-162,581,-52,293,-358
503509480,773,-197,604,-52,293,-358
503514745,758,-155,982,-52,293,-358
503520011,538,-123,730,-52,293,-358
503525276,668,-97,453,-52,293,-358
503530541,792,-175,914,-52,293,-358
503535806,646,-76,628,-52,293,-358
503541071,610,-90,644,-52,293,-358
503546335,692,-143,676,-52,293,-358
503551600,696,-141,857,-43,306,-350
503557184,587,-95,610,-43,306,-350
503562448,593,-115,696,-43,306,-350
503567713,738,-125,777,-43,306,-350
503572978,715,-143,550,-43,306,-350
503578243,616,-124,711,-43,306,-350
503583506,675,-152,901,-43,306,-350
503588770,796,-172,717,-43,306,-350
503594035,731,-216,496,-43,306,-350
503599518,626,-127,751,-43,306,-350
503604783,666,-170,908,-43,306,-350
503610048,803,-191,547,-43,306,-350
503615313,664,-100,428,-43,306,-350
503620578,601,-60,934,-43,306,-350
503625843,725,-137,788,-43,306,-350
503631107,817,-199,438,-43,306,-350
503636372,775,-130,1013,-43,306,-350
503641636,616,-135,1063,-43,306,-350
503646902,735,-152,594,-43,306,-350
503652167,813,-225,604,-43,306,-350
503657432,737,-136,842,-43,306,-350
503662696,556,-161,925,-43,306,-350
503667962,653,-129,484,-43,306,-350
503673225,800,-171,639,-43,306,-350
503678490,721,-135,645,-43,306,-350
503683755,545,-153,719,-43,306,-350
503689019,707,-104,644,-43,306,-350
503694502,765,-169,876,-30,341,-358
503700085,626,-154,643,-30,341,-358
503705350,628,-79,762,-30,341,-358
503710614,706,-178,716,-30,341,-358
503715880,719,-142,563,-30,341,-358
503721145,576,-119,639,-30,341,-358
503726409,606,-120,668,-30,341,-358
503731674,724,-147,623,-30,341,-358
503736940,695,-118,459,-30,341,-358
503742204,598,-98,647,-30,341,-358
503747470,669,-135,669,-30,341,-358
503752735,754,-154,735,-30,341,-358
503758000,745,-138,631,-30,341,-358
503763263,568,-80,686,-30,341,-358
503768528,678,-112,859,-30,341,-358
503773793,728,-133,625,-30,341,-358
503779058,719,-140,679,-30,341,-358
503784322,632,-133,869,-30,341,-358
503789587,649,-119,690,-30,341,-358
503795070,788,-206,617,-30,341,-358
503800334,763,-142,495,-30,341,-358
503805599,598,-125,631,-30,341,-358
503810864,689,-137,770,-30,341,-358
503816130,768,-168,681,-30,341,-358
503821394,751,-194,625,-30,341,-358
503826659,582,-119,551,-30,341,-358
503831925,695,-137,847,-17,358,-363
503837507,818,-200,590,-17,358,-363
503842771,700,-137,804,-17,358,-363
503848036,622,-91,963,-17,358,-363
503853300,725,-151,809,-17,358,-363
503858565,836,-232,550,-17,358,-363
503863831,769,-124,1013,-17,358,-363
503869095,608,-126,1105,-17,358,-363
503874360,723,-131,693,-17,358,-363
503879625,816,-229,494,-17,358,-363
503884890,743,-115,1001,-17,358,-363
503890373,552,-164,875,-17,358,-363
503895638,678,-130,555,-17,358,-363
503900903,801,-170,699,-17,358,-363
503906168,769,-166,818,-17,358,-363
503911433,546,-154,690,-17,358,-363
503916697,698,-128,683,-17,358,-363
503921964,783,-146,728,-17,358,-363
503927228,738,-127,885,-17,358,-363
503932492,549,-121,657,-17,358,-363
503937756,714,-145,705,-17,358,-363
503943022,781,-170,669,-17,358,-363
503948286,672,-107,730,-17,358,-363
503953551,584,-138,841,-17,358,-363
503958816,763,-159,590,-17,358,-363
503964080,790,-166,698,-17,358,-363
503969345,676,-5,736,-17,358,-363
503974610,535,-126,887,-43,284,-363
503980193,737,-132,613,-43,284,-363
503985458,775,-143,647,-43,284,-363
503990942,616,-72,822,-43,284,-363
503996206,582,-89,736,-43,284,-363
504001471,695,-128,483,-43,284,-363
504006735,758,-159,899,-43,284,-363
504012000,626,-71,532,-43,284,-363
504017265,583,-91,611,-43,284,-363
504022530,731,-128,731,-43,284,-363
504027795,752,-167,817,-43,284,-363
504033059,647,-90,754,-43,284,-363
504038325,590,-50,734,-43,284,-363
504043590,723,-128,721,-43,284,-363
504048855,745,-162,737,-43,284,-363
504054120,618,-73,622,-43,284,-363
504059384,618,-103,929,-43,284,-363
504064650,736,-205,675,-43,284,-363
504069915,756,-176,669,-43,284,-363
504075179,626,-95,836,-43,284,-363
504080444,554,-122,949,-43,284,-363
504085927,765,-211,803,-43,284,-363
504091191,751,-152,570,-43,284,-363
504096455,581,-89,818,-43,284,-363
504101720,565,-88,794,-43,284,-363
504106985,723,-150,488,-43,284,-363
504112249,777,-174,755,-43,284,-363
504117514,575,-36,549,-96,183,-354
504123098,643,-134,813,-96,183,-354
504150455,785,-148,624,-96,183,-354
504155721,716,-149,493,-96,183,-354
504160986,572,-78,750,-96,183,-354
504166444,681,-149,715,-96,183,-354
504171709,773,-160,676,-96,183,-354
504176974,758,-149,621,-96,183,-354
504182457,583,-131,827,-96,183,-354
504187721,641,-133,761,-96,183,-354
504192986,769,-167,604,-96,183,-354
504198251,764,-161,643,-96,183,-354
504203515,568,-96,783,-96,183,-354
504208780,637,-137,574,-96,183,-354
504214045,751,-128,647,-96,183,-354
504219309,740,-146,508,-96,183,-354
504224575,534,-111,678,-96,183,-354
504229840,675,-138,787,-96,183,-354
504235104,713,-116,603,-96,183,-354
504240368,719,-152,564,-96,183,-354
504245633,501,-103,607,-96,183,-354
504250900,621,-144,804,-96,183,-354
504256165,752,-139,589,-8,358,-358
504261748,708,-129,523,-8,358,-358
504267013,492,3,637,-8,358,-358
504272277,641,-152,730,-8,358,-358
504277542,755,-184,533,-8,358,-358
504283025,791,-164,617,-8,358,-358
504288290,577,-134,782,-8,358,-358
504293555,586,-109,667,-8,358,-358
504298819,743,-134,604,-8,358,-358
504304085,751,-159,830,-8,358,-358
504309349,521,-110,760,-8,358,-358
504314614,577,-87,533,-8,358,-358
504319880,733,-148,678,-8,358,-358
504325145,741,-160,733,-8,358,-358
504330411,524,-134,704,-8,358,-358
504335676,604,-52,757,-8,358,-358
504340941,755,-178,720,-8,358,-358
504346206,737,-144,551,-8,358,-358
504351470,513,-14,640,-8,358,-358
504356735,593,-121,901,-8,358,-358
504362000,804,-169,544,-8,358,-358
504367264,750,-154,529,-8,358,-358
504372528,610,14,795,-8,358,-358
504378012,579,-100,907,-8,358,-358
504383276,746,-162,479,-8,358,-358
504388541,786,-150,633,-8,358,-358
504393806,588,-63,717,-8,358,-358
504399071,545,-108,869,-8,380,-371
504404653,723,-140,587,-8,380,-371
504409919,756,-138,785,-8,380,-371
504415183,667,-75,828,-8,380,-371
504420448,514,-86,612,-8,380,-371
504425712,751,-154,673,-8,380,-371
504430978,789,-156,654,-8,380,-371
504436243,605,-79,609,-8,380,-371
504441506,572,-56,853,-8,380,-371
504446771,791,-148,648,-8,380,-371
504452036,797,-204,683,-8,380,-371
504457300,686,-117,957,-8,380,-371
504462565,581,-70,1081,-8,380,-371
504467830,814,-161,833,-8,380,-371
504473095,847,-234,482,-8,380,-371
504478578,737,-119,1024,-8,380,-371
504483843,564,-97,983,-8,380,-371
504489108,766,-140,651,-8,380,-371
504494372,898,-247,689,-8,380,-371
504499636,738,-164,674,-8,380,-371
504504902,570,-115,876,-8,380,-371
504510167,665,-68,702,-8,380,-371
504515431,834,-179,628,-8,380,-371
504520695,710,-119,675,-8,380,-371
504525961,575,-111,576,-8,380,-371
504531225,723,-147,806,-8,380,-371
504536490,841,-191,623,-8,380,-371
504541754,738,-175,492,-105,126,-345
504547337,624,-129,859,-105,126,-345
504552602,720,-194,880,-105,126,-345
504557867,860,-233,636,-105,126,-345
504563133,691,-130,791,-105,126,-345
504568399,524,-89,828,-105,126,-345
504573882,720,-144,770,-105,126,-345
504579147,776,-232,625,-105,126,-345
504584411,759,-151,784,-105,126,-345
504589676,550,-147,874,-105,126,-345
504594942,644,-157,553,-105,126,-345
504600206,799,-183,649,-105,126,-345
504605471,748,-141,743,-105,126,-345
504610735,492,-169,740,-105,126,-345
504616000,590,-88,569,-105,126,-345
504621263,760,-126,648,-105,126,-345
504626528,736,-156,721,-105,126,-345
504631793,440,-32,644,-105,126,-345
504637059,613,-136,922,-105,126,-345
504642323,810,-160,434,-105,126,-345
504647588,732,-161,533,-105,126,-345
504652853,578,-58,889,-105,126,-345
504658117,549,-92,846,-105,126,-345
504663382,818,-135,664,-105,126,-345
504668646,765,-162,539,-105,126,-345
504674131,597,-63,886,-105,126,-345
504679395,531,-103,879,48,481,-358
504684978,743,-129,550,48,481,-358
504690243,784,-162,750,48,481,-358
504695507,724,-140,910,48,481,-358
504700771,570,-95,710,48,481,-358
504706035,790,-156,897,48,481,-358
504711299,827,-188,619,48,481,-358
504716565,634,-135,771,48,481,-358
504721829,614,-41,772,48,481,-358
504727093,758,-136,707,48,481,-358
504732358,856,-247,613,48,481,-358
504737622,663,-112,651,48,481,-358
504742888,597,-95,900,48,481,-358
504748153,781,-200,741,48,481,-358
504753417,863,-248,551,48,481,-358
504758682,741,-151,742,48,481,-358
504763947,442,-10,912,48,481,-358
504769211,712,-185,658,48,481,-358
504774694,827,-218,571,48,481,-358
504779960,760,-148,718,48,481,-358
504785224,498,-149,828,48,481,-358
504790488,666,-125,544,48,481,-358
504795753,811,-184,752,48,481,-358
504801018,738,-162,607,48,481,-358
504806284,440,-93,749,48,481,-358
504811548,676,-145,957,48,481,-358
504816813,772,-129,431,48,481,-358
504822077,729,-160,684,-135,87,-358
504827660,509,-78,891,-135,87,-358
504832925,608,-131,853,-135,87,-358
504838189,831,-139,539,-135,87,-358
504843454,731,-141,536,-135,87,-358
504848718,553,-29,955,-135,87,-358
504853984,549,-89,860,-135,87,-358
504859248,811,-135,583,-135,87,-358
504864513,817,-183,653,-135,87,-358
504869996,623,-72,734,-135,87,-358
504875261,585,-114,754,-135,87,-358
504880526,786,-87,715,-135,87,-358
504885791,840,-161,643,-135,87,-358
504891056,655,-91,682,-135,87,-358
504896320,529,-57,565,-135,87,-358
504901585,737,-168,843,-135,87,-358
504906850,856,-205,690,-135,87,-358
504912115,669,-116,532,-135,87,-358
504917380,474,-69,880,-135,87,-358
504922645,711,-210,617,-135,87,-358
504927911,818,-231,571,-135,87,-358
504933176,716,-153,552,-135,87,-358
504938441,440,-51,847,-135,87,-358
504943705,707,-244,908,-135,87,-358
504948971,803,-176,350,-135,87,-358
504954236,753,-136,677,-135,87,-358
504959501,521,-143,835,-135,87,-358
504964767,568,-108,700,56,507,-363
504970568,789,-156,629,56,507,-363
504975834,737,-145,663,56,507,-363
504981098,487,-127,675,56,507,-363
504986362,656,-82,919,56,507,-363
504991627,839,-152,761,56,507,-363
504996893,769,-185,593,56,507,-363
505002157,523,-86,778,56,507,-363
505007422,605,-5,872,56,507,-363
505012686,789,-175,622,56,507,-363
505017951,808,-209,480,56,507,-363
505023215,674,-95,865,56,507,-363
505028479,591,-73,859,56,507,-363
505033744,745,-179,590,56,507,-363
505039009,830,-208,560,56,507,-363
505044273,720,-109,919,56,507,-363
505049538,508,-135,955,56,507,-363
505054803,698,-193,528,56,507,-363
505060068,826,-212,686,56,507,-363
505065552,729,-144,758,56,507,-363
505070816,502,-182,706,56,507,-363
505076081,707,-139,896,56,507,-363
505081346,870,-200,468,56,507,-363
505086611,724,-177,664,56,507,-363
505091877,559,-140,1012,56,507,-363
505097141,647,-78,1021,56,507,-363
505102405,902,-164,775,-105,144,-350
505107988,782,-179,603,-105,144,-350
505113252,593,-144,910,-105,144,-350
505118517,688,-158,903,-105,144,-350
505123782,773,-166,682,-105,144,-350
505150455,808,-179,605,-105,144,-350
505155720,650,-101,659,-105,144,-350
505160985,513,-7,691,-105,144,-350
505166468,722,-223,657,-105,144,-350
505171732,839,-247,648,-105,144,-350
505176997,688,-107,664,-105,144,-350
505182261,507,5,930,-105,144,-350
505187526,702,-213,795,-105,144,-350
505192791,794,-221,370,-105,144,-350
505198249,744,-172,665,-105,144,-350
505203514,593,-189,1044,-105,144,-350
505208778,678,-110,497,-105,144,-350
505214043,845,-128,823,-105,144,-350
505219308,750,-157,721,-105,144,-350
505224574,562,-151,812,-105,144,-350
505229839,673,-87,586,-105,144,-350
505235103,778,-106,788,-105,144,-350
505240367,803,-175,703,-105,144,-350
505245632,570,-73,484,-35,332,-358
505251216,535,42,759,-35,332,-358
505256480,763,-185,539,-35,332,-358
505261964,732,-213,461,-35,332,-358
505267228,685,-70,859,-35,332,-358
505272493,492,-19,656,-35,332,-358
505277758,689,-197,481,-35,332,-358
505283022,772,-191,471,-35,332,-358
505288287,677,-69,855,-35,332,-358
505293552,609,-210,956,-35,332,-358
505298816,715,-117,671,-35,332,-358
505304082,858,-160,918,-35,332,-358
505309346,713,-165,653,-35,332,-358
505314611,569,-196,678,-35,332,-358
505319877,756,-110,753,-35,332,-358
505325141,789,-132,698,-35,332,-358
505330406,793,-199,730,-35,332,-358
505335671,556,-91,826,-35,332,-358
505340937,533,11,616,-35,332,-358
505346201,735,-152,500,-35,332,-358
505351464,756,-214,438,-35,332,-358
505356730,676,-81,970,-35,332,-358
505362213,549,-58,702,-35,332,-358
505367478,649,-188,488,-35,332,-358
505372742,765,-164,645,-35,332,-358
505378008,684,-97,806,-35,332,-358
505383272,604,-247,826,-35,332,-358
505388537,732,-130,539,4,415,-367
505394119,823,-166,813,4,415,-367
505399384,702,-170,592,4,415,-367
505404649,545,-165,839,4,415,-367
505409914,738,-102,915,4,415,-367
505415179,823,-179,713,4,415,-367
505420445,762,-216,521,4,415,-367
505425709,614,-132,926,4,415,-367
505430975,550,-25,751,4,415,-367
505436239,686,-116,330,4,415,-367
505441503,720,-183,424,4,415,-367
505446768,651,-61,939,4,415,-367
505452033,633,-177,930,4,415,-367
505457516,678,-124,533,4,415,-367
505462782,809,-163,840,4,415,-367
505468047,685,-112,751,4,415,-367
505473311,590,-205,698,4,415,-367
505478576,776,-109,815,4,415,-367
505483842,831,-205,707,4,415,-367
505489106,765,-223,640,4,415,-367
505494371,579,-119,699,4,415,-367
505499636,629,-71,644,4,415,-367
505504901,730,-157,588,4,415,-367
505510166,723,-185,503,4,415,-367
505515430,677,-99,904,4,415,-367
505520695,609,-79,761,4,415,-367
505525960,656,-196,627,4,415,-367
505531224,753,-145,773,-83,210,-354
505536806,637,-77,773,-83,210,-354
505542071,646,-148,542,-83,210,-354
505547335,797,-177,659,-83,210,-354
505552600,819,-172,702,-83,210,-354
505558085,703,-161,579,-83,210,-354
505563350,572,-113,699,-83,210,-354
505568615,725,-93,743,-83,210,-354
505573880,765,-158,536,-83,210,-354
505579145,683,-201,554,-83,210,-354
505584410,665,-124,839,-83,210,-354
505589675,606,-43,640,-83,210,-354
505594941,690,-235,399,-83,210,-354
505600205,708,-142,604,-83,210,-354
505605470,665,-79,836,-83,210,-354
505610735,678,-227,887,-83,210,-354
505616000,778,-205,647,-83,210,-354
505621264,783,-133,876,-83,210,-354
505626528,698,-162,745,-83,210,-354
505631793,584,-138,546,-83,210,-354
505637058,706,-73,650,-83,210,-354
505642322,746,-166,698,-83,210,-354
505647587,705,-214,654,-83,210,-354
505653071,664,-106,783,-83,210,-354
505658335,626,-10,813,-83,210,-354
505663601,691,-229,655,-83,210,-354
505668866,720,-164,565,-39,262,-350
505674450,675,-86,890,-39,262,-350
505679714,684,-196,880,-39,262,-350
505684979,757,-203,570,-39,262,-350
505690244,770,-117,854,-39,262,-350
505695508,692,-141,744,-39,262,-350
505700772,601,-144,530,-39,262,-350
505706037,735,-90,689,-39,262,-350
505711301,739,-165,731,-39,262,-350
505716566,721,-207,703,-39,262,-350
505721830,622,-87,521,-39,262,-350
505727095,618,20,792,-39,262,-350
505732359,692,-215,686,-39,262,-350
505737624,733,-162,658,-39,262,-350
505742890,705,-95,816,-39,262,-350
505748157,726,-258,857,-39,262,-350
505753640,729,-181,463,-39,262,-350
505758905,762,-103,841,-39,262,-350
505764171,708,-120,839,-39,262,-350
505769437,607,-146,534,-39,262,-350
505774701,672,-95,800,-39,262,-350
505779967,715,-198,793,-39,262,-350
505785231,687,-199,504,-39,262,-350
505790495,628,-78,501,-39,262,-350
505795759,649,-104,878,-39,262,-350
505801024,705,-210,990,-39,262,-350
505806288,825,-167,660,-39,262,-350
505811553,742,-177,681,-30,306,-354
505817136,689,-181,816,-30,306,-354
505822400,737,-173,553,-30,306,-354
505827665,696,-74,444,-30,306,-354
505832931,682,-113,784,-30,306,-354
505838195,639,-128,740,-30,306,-354
505843459,635,-91,698,-30,306,-354
505848943,674,-169,856,-30,306,-354
505854207,747,-185,697,-30,306,-354
505859472,661,-122,592,-30,306,-354
505864736,625,-140,821,-30,306,-354
505870002,690,-145,789,-30,306,-354
505875266,812,-149,607,-30,306,-354
505880531,747,-198,688,-30,306,-354
505885796,652,-151,821,-30,306,-354
505891061,660,-129,806,-30,306,-354
505896325,649,-58,477,-30,306,-354
505901590,658,-120,598,-30,306,-354
505906855,656,-105,851,-30,306,-354
505912120,647,-188,581,-30,306,-354
505917384,719,-168,882,-30,306,-354
505922649,760,-155,809,-30,306,-354
505927915,707,-164,706,-30,306,-354
505933179,617,-137,796,-30,306,-354
505938444,707,-96,627,-30,306,-354
505943708,717,-129,595,-30,306,-354
505949191,680,-201,556,-30,306,-354
505954456,688,-123,966,-26,315,-350
505960039,641,-45,728,-26,315,-350
505965303,621,-146,330,-26,315,-350
505970569,713,-141,831,-26,315,-350
505975833,669,-91,770,-26,315,-350
505981098,660,-207,732,-26,315,-350
505986362,780,-171,606,-26,315,-350
505991627,767,-132,843,-26,315,-350
505996893,708,-190,752,-26,315,-350
506002159,595,-115,519,-26,315,-350
506007425,639,-47,851,-26,315,-350
506012690,666,-138,703,-26,315,-350
506017955,672,-174,498,-26,315,-350
506023219,678,-113,775,-26,315,-350
506028485,706,-147,819,-26,315,-350
506033751,672,-195,607,-26,315,-350
506039016,734,-101,687,-26,315,-350
506044499,739,-106,899,-26,315,-350
506049763,659,-166,634,-26,315,-350
506055029,659,-126,587,-26,315,-350
506060292,719,-96,844,-26,315,-350
506065558,672,-155,452,-26,315,-350
506070822,619,-86,512,-26,315,-350
506076087,632,-86,704,-26,315,-350
506081352,700,-177,984,-26,315,-350
506086617,799,-195,694,-26,315,-350
506091883,744,-186,642,-43,310,-350
506097466,657,-134,794,-43,310,-350
506102730,688,-166,665,-43,310,-350
506107996,649,-56,395,-43,310,-350
506113260,690,-127,819,-43,310,-350
506118525,646,-108,848,-43,310,-350
506123791,637,-114,815,-43,310,-350
506150673,736,-168,949,-43,310,-350
506155938,727,-74,532,-43,310,-350
506161203,691,-146,639,-43,310,-350
506166467,698,-154,1039,-43,310,-350
506171731,675,-134,874,-43,310,-350
506176996,657,-173,450,-43,310,-350
506182261,720,-172,897,-43,310,-350
506187526,669,-86,752,-43,310,-350
506192792,662,-215,625,-43,310,-350
506198058,746,-140,734,-43,310,-350
506203322,748,-141,750,-43,310,-350
506208587,711,-190,702,-43,310,-350
506213852,636,-114,576,-43,310,-350
506219117,655,-24,836,-43,310,-350
506224381,665,-149,747,-43,310,-350
506229646,695,-137,738,-43,310,-350
506235104,725,-116,858,-48,293,-354
506240906,705,-170,857,-48,293,-354
506246171,738,-164,430,-48,293,-354
506251436,765,-127,935,-48,293,-354
506256702,710,-168,795,-48,293,-354
506261968,619,-146,487,-48,293,-354
506267232,665,-18,881,-48,293,-354
506272497,680,-159,846,-48,293,-354
506277762,720,-204,707,-48,293,-354
506283029,694,-138,575,-48,293,-354
506288294,671,-75,778,-48,293,-354
506293559,721,-185,731,-48,293,-354
506298824,690,-59,381,-48,293,-354
506304088,697,-95,878,-48,293,-354
506309353,663,-165,886,-48,293,-354
506314618,665,-162,876,-48,293,-354
506319884,678,-132,604,-48,293,-354
506325149,742,-197,782,-48,293,-354
506330413,682,-104,741,-48,293,-354
506335678,609,-116,688,-48,293,-354
506341163,737,-141,796,-48,293,-354
506346427,753,-101,613,-48,293,-354
506351692,677,-180,677,-48,293,-354
506356959,688,-129,850,-48,293,-354
506362223,698,-48,776,-48,293,-354
506367488,672,-215,454,-48,293,-354
506372753,711,-141,805,-48,293,-354
506378017,729,-103,782,-43,293,-350
506383599,667,-191,667,-43,293,-350
506388865,739,-180,480,-43,293,-350
506394131,745,-162,745,-43,293,-350
506399395,723,-147,851,-43,293,-350
506404660,624,-120,485,-43,293,-350
506409926,672,2,736,-43,293,-350
506415190,684,-149,973,-43,293,-350
506420454,746,-200,613,-43,293,-350
506425719,749,-154,747,-43,293,-350
506430984,690,-164,714,-43,293,-350
506436467,680,-229,854,-43,293,-350
506441731,653,-83,420,-43,293,-350
506446996,657,-100,796,-43,293,-350
506452261,645,-116,791,-43,293,-350
506457525,607,-106,631,-43,293,-350
506462791,720,-119,908,-43,293,-350
506468055,747,-239,682,-43,293,-350
506473320,727,-180,593,-43,293,-350
506478585,671,-138,794,-43,293,-350
506483850,643,-116,700,-43,293,-350
506489115,699,-78,594,-43,293,-350
506494379,653,-129,554,-43,293,-350
506499645,699,-124,912,-43,293,-350
506504911,711,-147,943,-43,293,-350
506510175,669,-177,370,-43,293,-350
506515440,734,-118,1065,-30,301,-358
506521023,689,-161,674,-30,301,-358
506526287,623,-149,531,-30,301,-358
506531553,664,-36,863,-30,301,-358
506537037,689,-122,732,-30,301,-358
506542301,744,-201,795,-30,301,-358
506547566,689,-132,516,-30,301,-358
506552831,693,-75,775,-30,301,-358
506558095,691,-186,655,-30,301,-358
506563359,633,-57,250,-30,301,-358
506568624,721,-107,1001,-30,301,-358
506573890,658,-135,861,-30,301,-358
506579154,616,-84,481,-30,301,-358
506584419,741,-180,780,-30,301,-358
506589683,718,-196,642,-30,301,-358
506594949,716,-135,683,-30,301,-358
506600214,627,-144,604,-30,301,-358
506605479,646,-96,741,-30,301,-358
506610744,731,-117,877,-30,301,-358
506616009,650,-206,328,-30,301,-358
506621273,691,-117,710,-30,301,-358
506626538,693,-87,904,-30,301,-358
506632021,661,-185,393,-30,301,-358
506637286,729,-82,794,-30,301,-358
506642552,698,-134,830,-30,301,-358
506647816,655,-186,616,-30,301,-358
506653080,674,-12,662,-30,301,-358
506658345,702,-191,880,-30,323,-358
506663927,756,-206,809,-30,323,-358
506669192,687,-126,468,-30,323,-358
506674456,646,-125,900,-30,323,-358
506679722,690,-190,936,-30,323,-358
506684987,685,-45,399,-30,323,-358
506690251,701,-146,744,-30,323,-358
506695516,659,-179,851,-30,323,-358
506700780,663,-173,571,-30,323,-358
506706046,695,-144,695,-30,323,-358
506711311,730,-171,849,-30,323,-358
506716576,707,-123,765,-30,323,-358
506721841,622,-159,526,-30,323,-358
506727105,671,-65,681,-30,323,-358
506732589,723,-102,740,-30,323,-358
506737854,651,-219,418,-30,323,-358
506743119,694,-114,832,-30,323,-358
506748384,749,-157,900,-30,323,-358
506753649,684,-226,509,-30,323,-358
506758915,721,-88,811,-30,323,-358
506764179,720,-107,816,-30,323,-358
506769444,656,-188,642,-30,323,-358
506774708,705,-141,753,-30,323,-358
506779973,705,-169,924,-30,323,-358
506785239,745,-204,853,-30,323,-358
506790503,676,-108,524,-30,323,-358
506795767,645,-145,620,-30,323,-358
506801032,708,-165,883,-43,306,-354
506806615,680,-77,451,-43,306,-354
506811881,687,-168,515,-43,306,-354
506817146,699,-160,981,-43,306,-354
506822411,689,-82,612,-43,306,-354
506827895,704,-186,508,-43,306,-354
506833159,732,-168,904,-43,306,-354
506838424,690,-126,774,-43,306,-354
506843688,614,-149,524,-43,306,-354
506848954,656,-72,783,-43,306,-354
506854217,715,-128,776,-43,306,-354
506859482,673,-217,530,-43,306,-354
506864746,694,-120,475,-43,306,-354
506870011,741,-113,956,-43,306,-354
506875275,676,-190,827,-43,306,-354
506880539,678,-53,432,-43,306,-354
506885804,692,-118,776,-43,306,-354
506891069,648,-160,753,-43,306,-354
506896332,648,-151,412,-43,306,-354
506901599,707,-148,808,-43,306,-354
506906864,746,-198,750,-43,306,-354
506912130,733,-138,725,-43,306,-354
506917394,628,-159,576,-43,306,-354
506922659,653,-71,729,-43,306,-354
506928143,712,-77,748,-43,306,-354
506933408,667,-167,359,-43,306,-354
506938673,697,-122,839,-43,306,-354
506943938,676,-74,786,-48,275,-363
506949520,679,-171,440,-48,275,-363
506954785,735,-95,820,-48,275,-363
506960050,680,-116,754,-48,275,-363
506965314,647,-181,549,-48,275,-363
506970579,682,-11,739,-48,275,-363
506975844,733,-195,826,-48,275,-363
506981109,764,-225,724,-48,275,-363
506986373,720,-135,536,-48,275,-363
506991637,675,-148,786,-48,275,-363
506996904,685,-216,948,-48,275,-363
507002169,658,-84,485,-48,275,-363
507007433,656,-96,596,-48,275,-363
507012698,703,-128,986,-48,275,-363
507017964,695,-232,600,-48,275,-363
507023447,759,-175,684,-48,275,-363
507028712,758,-160,970,-48,275,-363
507033977,715,-168,655,-48,275,-363
507039241,626,-143,539,-48,275,-363
507044505,655,10,823,-48,275,-363
507049769,706,-159,1005,-48,275,-363
507055034,703,-191,652,-48,275,-363
507060299,755,-168,754,-48,275,-363
507065563,713,-158,805,-48,275,-363
507070828,650,-249,720,-48,275,-363
507076093,668,-62,418,-48,275,-363
507081357,692,-75,673,-43,288,-363
507086940,668,-123,667,-43,288,-363
507092204,650,-129,725,-43,288,-363
507097468,716,-134,670,-43,288,-363
507102733,703,-156,673,-43,288,-363
507107998,684,-134,682,-43,288,-363
507113262,651,-98,646,-43,288,-363
507118528,664,-71,721,-43,288,-363
507124011,645,-76,751,-43,288,-363
507151455,690,-94,735,-43,288,-363
507156721,673,-178,583,-43,288,-363
507161985,710,-142,807,-43,288,-363
507167251,756,-126,957,-43,288,-363
507172516,696,-230,470,-43,288,-363
507177780,658,-83,457,-43,288,-363
507183045,698,-78,833,-43,288,-363
507188310,648,-157,756,-43,288,-363
507193576,651,-80,624,-43,288,-363
507198841,739,-157,811,-43,288,-363
507204105,751,-231,766,-43,288,-363
507209369,725,-167,676,-43,288,-363
507214634,665,-148,622,-43,288,-363
507220118,671,-36,740,-43,288,-363
507225383,684,-127,613,-26,336,-350
507230966,668,-132,636,-26,336,-350
507236230,741,-150,945,-26,336,-350
507241495,722,-151,616,-26,336,-350
507246760,667,-135,721,-26,336,-350
507252024,695,-133,821,-26,336,-350
507257288,705,-140,731,-26,336,-350
507262553,668,-114,488,-26,336,-350
507268012,696,-122,855,-26,336,-350
507273276,704,-179,844,-26,336,-350
507278541,664,-104,541,-26,336,-350
507283806,651,-117,670,-26,336,-350
507289070,693,-161,917,-26,336,-350
507294334,701,-215,558,-26,336,-350
507299599,706,-176,511,-26,336,-350
507304864,764,-182,970,-26,336,-350
507310130,693,-123,835,-26,336,-350
507315613,620,-154,532,-26,336,-350
507320878,668,-14,859,-26,336,-350
507326144,723,-156,956,-26,336,-350
507331408,708,-204,640,-26,336,-350
507336673,750,-207,592,-26,336,-350
507341938,740,-159,962,-26,336,-350
507347201,650,-74,733,-26,336,-350
507352466,679,-119,553,-26,336,-350
507357730,700,-168,781,-26,336,-350
507362995,712,-145,887,-56,266,-345
507368578,669,-130,600,-56,266,-345
507373843,670,-109,802,-56,266,-345
507379107,670,-134,743,-56,266,-345
507384372,663,-162,600,-56,266,-345
507389637,712,-136,545,-56,266,-345
507394902,750,-133,882,-56,266,-345
507400167,669,-217,806,-56,266,-345
507405431,645,-73,436,-56,266,-345
507410696,646,-45,713,-56,266,-345
507416180,657,-147,780,-56,266,-345
507421444,665,-199,673,-56,266,-345
507426709,706,-110,536,-56,266,-345
507431975,734,-218,784,-56,266,-345
507437239,692,-145,622,-56,266,-345
507442504,658,-136,665,-56,266,-345
507447768,676,-110,747,-56,266,-345
507453032,720,-155,686,-56,266,-345
507458296,721,-136,676,-56,266,-345
507463561,697,-114,882,-56,266,-345
507468826,649,-147,714,-56,266,-345
507474090,630,-105,535,-56,266,-345
507479355,689,-127,836,-56,266,-345
507484620,762,-225,812,-56,266,-345
507489886,743,-157,630,-56,266,-345
507495151,642,-136,603,-56,266,-345
507500415,659,-45,704,-56,266,-345
507505680,707,-92,858,-30,310,-358
507511482,676,-122,545,-30,310,-358
507516747,741,-141,899,-30,310,-358
507522012,726,-145,710,-30,310,-358
507527276,692,-172,747,-30,310,-358
507532541,660,-109,821,-30,310,-358
507537806,711,-125,766,-30,310,-358
507543071,680,-134,573,-30,310,-358
507548335,693,-146,746,-30,310,-358
507553600,693,-145,802,-30,310,-358
507558865,688,-107,526,-30,310,-358
507564130,643,-125,525,-30,310,-358
507569394,709,-149,949,-30,310,-358
507574659,750,-177,895,-30,310,-358
507579925,680,-228,474,-30,310,-358
507585189,681,-116,867,-30,310,-358
507590453,661,-90,679,-30,310,-358
507595717,650,-123,512,-30,310,-358
507600983,663,-154,733,-30,310,-358
507606247,752,-137,780,-30,310,-358
507611730,725,-178,591,-30,310,-358
507616995,701,-152,592,-30,310,-358
507622259,667,-141,855,-30,310,-358
507627524,639,-62,738,-30,310,-358
507632789,680,-120,523,-30,310,-358
507638055,724,-122,716,-30,310,-358
507643319,693,-136,781,-30,310,-358
507648585,653,-149,619,-39,297,-358
507654168,697,-52,721,-39,297,-358
507659433,710,-143,932,-39,297,-358
507664697,763,-261,673,-39,297,-358
507669962,744,-167,572,-39,297,-358
507675226,696,-137,908,-39,297,-358
507680491,676,-131,906,-39,297,-358
507685755,648,-46,492,-39,297,-358
507691020,687,-150,677,-39,297,-358
507696285,704,-138,932,-39,297,-358
507701550,719,-140,656,-39,297,-358
507706814,688,-93,671,-39,297,-358
507712297,679,-172,741,-39,297,-358
507717562,741,-165,716,-39,297,-358
507722827,713,-138,545,-39,297,-358
507728091,685,-137,769,-39,297,-358
507733355,692,-217,906,-39,297,-358
507738620,652,-66,467,-39,297,-358
507743887,634,-69,601,-39,297,-358
507749152,697,-135,815,-39,297,-358
507754417,678,-140,611,-39,297,-358
507759681,691,-132,497,-39,297,-358
507764947,709,-168,880,-39,297,-358
507770213,692,-154,670,-39,297,-358
507775477,622,-121,522,-39,297,-358
507780742,637,-58,720,-39,297,-358
507786007,705,-136,765,-39,297,-358
507791271,671,-91,411,-21,306,-358
507796853,705,-137,826,-21,306,-358
507802118,664,-131,899,-21,306,-358
507807601,665,-161,561,-21,306,-358
507812867,718,-135,804,-21,306,-358
507818132,772,-207,905,-21,306,-358
507823396,754,-172,713,-21,306,-358
507828660,626,-131,703,-21,306,-358
507833926,650,-13,746,-21,306,-358
507839190,711,-97,921,-21,306,-358
507844455,705,-201,650,-21,306,-358
507849719,744,-163,822,-21,306,-358
507854985,743,-153,944,-21,306,-358
507860249,654,-183,811,-21,306,-358
507865513,683,-119,589,-21,306,-358
507870778,702,-153,653,-21,306,-358
507876043,718,-163,883,-21,306,-358
507881307,678,-146,655,-21,306,-358
507886572,672,-86,808,-21,306,-358
507891836,667,-134,704,-21,306,-358
507897100,723,-188,712,-21,306,-358
507902364,713,-143,579,-21,306,-358
507907847,748,-143,878,-21,306,-358
507913112,673,-216,768,-21,306,-358
507918376,645,-79,468,-21,306,-358
507923641,644,-38,767,-21,306,-358
507928907,648,-139,735,-52,293,-358
507934490,651,-167,611,-52,293,-358
507939754,761,-143,890,-52,293,-358
507945019,741,-207,753,-52,293,-358
507950285,709,-193,619,-52,293,-358
507955550,653,-123,681,-52,293,-358
507960815,656,-98,753,-52,293,-358
507966080,717,-164,667,-52,293,-358
507971346,723,-131,689,-52,293,-358
507976610,698,-114,871,-52,293,-358
507981876,653,-147,678,-52,293,-358
507987140,630,-101,640,-52,293,-358
507992405,694,-132,919,-52,293,-358
507997670,762,-235,718,-52,293,-358
508003154,740,-145,655,-52,293,-358
508008418,674,-146,728,-52,293,-358
508013683,664,-146,766,-52,293,-358
508018948,687,-59,774,-52,293,-358
508024213,662,-87,541,-52,293,-358
508029477,726,-159,948,-52,293,-358
508034741,742,-140,680,-52,293,-358
508040006,639,-238,666,-52,293,-358
508045270,662,-70,766,-52,293,-358
508050535,692,-75,669,-52,293,-358
508055801,668,-124,574,-52,293,-358
508061066,683,-127,677,-52,293,-358
508066329,707,-148,754,-52,293,-358
508071594,710,-133,758,-39,301,-354
508077177,651,-152,525,-39,301,-354
508082442,701,-143,953,-39,301,-354
508087706,722,-160,757,-39,301,-354
508092971,703,-201,443,-39,301,-354
508098236,724,-140,1014,-39,301,-354
508103719,692,-111,685,-39,301,-354
508108984,629,-160,546,-39,301,-354
508114248,716,-20,851,-39,301,-354
508119513,725,-159,879,-39,301,-354
508124778,649,-85,479,-39,301,-354
508151455,686,-121,760,-39,301,-354
508156722,711,-154,722,-39,301,-354
508161987,707,-155,646,-39,301,-354
508167251,681,-127,743,-39,301,-354
508172515,677,-153,726,-39,301,-354
508177780,674,-156,663,-39,301,-354
508183045,693,-124,483,-39,301,-354
508188309,713,-104,845,-39,301,-354
508193574,698,-209,855,-39,301,-354
508199058,649,-76,410,-39,301,-354
508204322,691,-72,910,-39,301,-354
508209588,647,-136,792,-39,301,-354
508214853,628,-100,444,-35,310,-363
508220435,718,-125,877,-35,310,-363
508225700,762,-245,756,-35,310,-363
508230965,743,-181,681,-35,310,-363
508236229,644,-156,808,-35,310,-363
508241494,644,-45,701,-35,310,-363
508246759,694,-105,815,-35,310,-363
508252024,685,-170,558,-35,310,-363
508257289,727,-145,944,-35,310,-363
508262554,714,-135,752,-35,310,-363
508267819,650,-229,692,-35,310,-363
508273085,672,-94,587,-35,310,-363
508278349,696,-103,674,-35,310,-363
508283614,672,-121,652,-35,310,-363
508288880,683,-129,720,-35,310,-363
508294145,708,-170,730,-35,310,-363
508299822,701,-134,585,-35,310,-363
508305086,653,-134,532,-35,310,-363
508310351,683,-137,983,-35,310,-363
508315616,698,-114,792,-35,310,-363
508320882,699,-188,437,-35,310,-363
508326147,738,-119,817,-35,310,-363
508331411,683,-111,771,-35,310,-363
508336676,646,-168,610,-35,310,-363
508341941,698,-29,692,-35,310,-363
508347206,727,-167,941,-35,310,-363
508352469,751,-221,705,-52,275,-354
508358053,726,-157,628,-52,275,-354
508363317,717,-147,860,-52,275,-354
508368582,673,-199,904,-52,275,-354
508373848,618,-55,397,-52,275,-354
508379112,683,-80,670,-52,275,-354
508384377,679,-124,866,-52,275,-354
508389642,703,-187,699,-52,275,-354
508395126,730,-148,544,-52,275,-354
508400390,727,-202,724,-52,275,-354
508405656,715,-155,750,-52,275,-354
508410921,638,-120,526,-52,275,-354
508416186,626,-61,736,-52,275,-354
508421451,702,-152,898,-52,275,-354
508426715,751,-163,732,-52,275,-354
508431980,737,-185,673,-52,275,-354
508437244,665,-163,742,-52,275,-354
508442509,609,-98,691,-52,275,-354
508447773,667,-98,684,-52,275,-354
508453038,725,-182,752,-52,275,-354
508458302,716,-158,738,-52,275,-354
508463569,639,-146,589,-52,275,-354
508468834,649,-71,765,-52,275,-354
508474098,690,-110,721,-52,275,-354
508479363,654,-172,487,-52,275,-354
508484627,705,-145,530,-52,275,-354
508489893,754,-126,952,-52,275,-354
508495376,709,-226,435,-21,328,-358
508500959,748,-130,835,-21,328,-358
508506223,704,-91,758,-21,328,-358
508511487,660,-168,622,-21,328,-358
508516752,674,-26,717,-21,328,-358
508522017,726,-176,966,-21,328,-358
508527281,756,-205,732,-21,328,-358
508532546,722,-133,650,-21,328,-358
508537811,682,-153,768,-21,328,-358
508543075,651,-146,712,-21,328,-358
508548339,661,-84,536,-21,328,-358
508553604,656,-107,493,-21,328,-358
508558869,701,-119,978,-21,328,-358
508564136,711,-170,830,-21,328,-358
508569400,671,-154,370,-21,328,-358
508574665,716,-117,946,-21,328,-358
508579931,707,-154,760,-21,328,-358
508585194,628,-119,489,-21,328,-358
508590677,694,-30,851,-21,328,-358
508595942,708,-141,933,-21,328,-358
508601207,778,-185,684,-21,328,-358
508606471,739,-187,638,-21,328,-358
508611735,707,-158,845,-21,328,-358
508617000,658,-175,871,-21,328,-358
508622265,635,-74,427,-21,328,-358
508627529,690,-84,772,-21,328,-358
508632794,672,-109,790,-21,328,-358
508638059,703,-178,720,-43,297,-354
508643641,740,-121,665,-43,297,-354
508648907,737,-199,665,-43,297,-354
508654172,714,-207,695,-43,297,-354
508659438,644,-103,539,-43,297,-354
508664702,661,-33,581,-43,297,-354
508669968,729,-189,999,-43,297,-354
508675232,717,-160,742,-43,297,-354
508680496,750,-163,730,-43,297,-354
508685761,672,-152,611,-43,297,-354
508691244,623,-135,746,-43,297,-354
508696509,658,-99,684,-43,297,-354
508701773,689,-147,568,-43,297,-354
508707037,697,-150,698,-43,297,-354
508712301,677,-137,874,-43,297,-354
508717566,705,-133,652,-43,297,-354
508722831,726,-127,574,-43,297,-354
508728095,668,-149,682,-43,297,-354
508733360,690,-134,900,-43,297,-354
508738625,735,-200,737,-43,297,-354
508743890,686,-183,595,-43,297,-354
508749155,717,-142,911,-43,297,-354
508754419,717,-115,831,-43,297,-354
508759684,650,-161,585,-43,297,-354
508764949,689,-107,721,-43,297,-354
508770214,698,-134,932,-43,297,-354
508775479,749,-202,782,-43,297,-354
508780744,688,-126,510,-52,271,-363
508786546,679,-81,903,-52,271,-363
508791812,680,-198,734,-52,271,-363
508797077,669,-100,547,-52,271,-363
508802342,706,-111,883,-52,271,-363
508807607,653,-165,712,-52,271,-363
508812872,634,-148,445,-52,271,-363
508818138,707,-142,884,-52,271,-363
508823402,724,-182,768,-52,271,-363
508828666,720,-135,732,-52,271,-363
508833932,613,-144,554,-52,271,-363
508839196,659,-85,783,-52,271,-363
508844460,723,-120,764,-52,271,-363
508849724,645,-192,353,-52,271,-363
508854989,689,-125,919,-52,271,-363
508860254,756,-168,985,-52,271,-363
508865518,680,-221,378,-52,271,-363
508870783,719,-99,670,-52,271,-363
508876049,701,-107,854,-52,271,-363
508881313,651,-169,667,-52,271,-363
508886796,716,-113,728,-52,271,-363
508892061,691,-188,922,-52,271,-363
508897325,756,-199,839,-52,271,-363
508902589,677,-113,510,-52,271,-363
508907854,656,-152,683,-52,271,-363
508913119,723,-185,941,-52,271,-363
508918384,710,-85,548,-30,301,-354
508923966,699,-150,875,-30,301,-354
508929231,685,-168,938,-30,301,-354
508934495,726,-111,641,-30,301,-354
508939760,712,-169,612,-30,301,-354
508945025,726,-167,819,-30,301,-354
508950291,704,-122,800,-30,301,-354
508955556,630,-172,546,-30,301,-354
508960820,694,-90,699,-30,301,-354
508966085,713,-124,780,-30,301,-354
508971349,675,-225,550,-30,301,-354
508976614,668,-100,604,-30,301,-354
508982098,704,-88,578,-30,301,-354
508987363,682,-208,789,-30,301,-354
508992628,708,-90,756,-30,301,-354
508997894,742,-125,886,-30,301,-354
509003159,654,-165,621,-30,301,-354
509008424,633,-143,799,-30,301,-354
509013689,683,-98,678,-30,301,-354
509018955,676,-182,455,-30,301,-354
509024218,687,-125,725,-30,301,-354
509029483,694,-182,868,-30,301,-354
509034748,722,-148,646,-30,301,-354
509040013,801,-178,749,-30,301,-354
509045277,676,-178,724,-30,301,-354
509050542,651,-152,896,-30,301,-354
509055807,710,-40,618,-30,301,-354
509061072,667,-179,625,-35,328,-358
509066654,709,-135,816,-35,328,-358
509071919,697,-115,734,-35,328,-358
509077185,721,-215,787,-35,328,-358
509082667,755,-157,522,-35,328,-358
509087933,695,-199,655,-35,328,-358
509093197,728,-169,937,-35,328,-358
509098462,633,-121,617,-35,328,-358
509103726,660,32,701,-35,328,-358
509108991,675,-146,795,-35,328,-358
509114255,713,-165,627,-35,328,-358
509119521,719,-136,773,-35,328,-358
509124787,641,-120,679,-35,328,-358
509151455,701,-14,665,-35,328,-358
509156721,730,-136,1047,-35,328,-358
509161986,781,-194,800,-35,328,-358
509167250,712,-150,607,-35,328,-358
509172515,680,-162,813,-35,328,-358
509177998,705,-202,924,-35,328,-358
509183263,683,-117,583,-35,328,-358
509188529,691,-115,548,-35,328,-358
509193794,686,-121,1020,-35,328,-358
509199058,670,-241,630,-35,328,-358
509204322,692,-145,901,-43,315,-358
509209905,737,-189,678,-43,315,-358
509215170,704,-163,697,-43,315,-358
509220434,634,-142,661,-43,315,-358
509225699,660,-61,593,-43,315,-358
509230965,733,-135,713,-43,315,-358
509236229,674,-205,503,-43,315,-358
509241494,698,-124,773,-43,315,-358
509246758,710,-106,723,-43,315,-358
509252023,712,-232,816,-43,315,-358
509257287,706,-91,658,-43,315,-358
509262553,732,-136,903,-43,315,-358
509267817,657,-188,664,-43,315,-358
509273082,617,-110,548,-43,315,-358
509278566,683,-70,770,-43,315,-358
509283831,669,-147,732,-43,315,-358
509289096,637,-82,534,-43,315,-358
509294361,692,-37,769,-43,315,-358
509299626,710,-178,1023,-43,315,-358
509304892,784,-199,795,-43,315,-358
509310156,734,-190,651,-43,315,-358
509315421,668,-166,800,-43,315,-358
509320685,664,-170,776,-43,315,-358
509325950,636,-76,447,-43,315,-358
509331214,671,-125,775,-43,315,-358
509336672,655,-104,846,-43,315,-358
509341937,572,-62,323,-26,297,-354
509347520,682,-114,948,-26,297,-354
509352785,756,-183,858,-26,297,-354
509358050,703,-127,604,-26,297,-354
509363314,662,-150,809,-26,297,-354
509368578,720,-135,723,-26,297,-354
509374062,746,-98,571,-26,297,-354
509379326,697,-155,618,-26,297,-354
509384591,689,-145,1055,-26,297,-354
509389857,694,-170,953,-26,297,-354
509395122,633,-158,501,-26,297,-354
509400387,729,-164,897,-26,297,-354
509405653,685,-114,744,-26,297,-354
509410919,673,-227,676,-26,297,-354
509416183,726,-109,480,-26,297,-354
509421448,748,-139,727,-26,297,-354
509426712,700,-153,791,-26,297,-354
509431977,602,-95,543,-26,297,-354
509437241,614,-20,800,-26,297,-354
509442505,673,-149,657,-26,297,-354
509447770,643,-123,443,-26,297,-354
509453035,703,-109,639,-26,297,-354
509458299,738,-214,896,-26,297,-354
509463564,732,-207,698,-26,297,-354
509468829,759,-134,765,-26,297,-354
509474312,732,-130,894,-26,297,-354
509479577,635,-167,633,-26,297,-354
509484842,651,-93,783,-30,301,-354
509490425,699,-159,803,-30,301,-354
509495689,682,-201,648,-30,301,-354
509500956,612,-76,435,-30,301,-354
509506220,691,-33,778,-30,301,-354
509511485,732,-214,988,-30,301,-354
509516750,752,-145,631,-30,301,-354
509522014,751,-193,708,-30,301,-354
509527280,669,-156,765,-30,301,-354
509532545,685,-162,845,-30,301,-354
509537811,668,-40,375,-30,301,-354
509543076,660,-124,650,-30,301,-354
509548340,642,-103,739,-30,301,-354
509553605,570,-102,440,-30,301,-354
509558870,681,-130,841,-30,301,-354
509564135,771,-196,826,-30,301,-354
509569619,693,-124,595,-30,301,-354
509574885,628,-121,742,-30,301,-354
509580149,743,-216,869,-30,301,-354
509585414,789,-122,699,-30,301,-354
509590679,722,-161,619,-30,301,-354
509595944,654,-149,947,-30,301,-354
509601210,658,-110,787,-30,301,-354
509606474,649,-159,387,-30,301,-354
509611739,671,-158,642,-30,301,-354
509617004,671,-85,845,-30,301,-354
509622268,690,-258,769,-30,301,-354
509627533,710,-165,485,-39,301,-363
509633116,768,-149,803,-39,301,-363
509638380,710,-182,707,-39,301,-363
509643645,636,-156,791,-39,301,-363
509648911,689,-69,605,-39,301,-363
509654176,759,-120,561,-39,301,-363
509659441,673,-210,579,-39,301,-363
509664706,681,-128,885,-39,301,-363
509670188,628,-41,700,-39,301,-363
509675453,641,-217,613,-39,301,-363
509680717,688,-136,664,-39,301,-363
509685983,684,-105,863,-39,301,-363
509691247,681,-227,844,-39,301,-363
509696512,723,-146,457,-39,301,-363
509701777,781,-135,871,-39,301,-363
509707042,715,-158,767,-39,301,-363
509712306,593,-119,581,-39,301,-363
509717571,675,-5,491,-39,301,-363
509722836,702,-175,599,-39,301,-363
509728100,683,-204,534,-39,301,-363
509733364,640,-77,559,-39,301,-363
509738629,634,-50,825,-39,301,-363
509743895,674,-203,909,-39,301,-363
509749159,728,-128,736,-39,301,-363
509754424,745,-146,795,-39,301,-363
509759688,719,-269,807,-39,301,-363
509765172,741,-162,428,-43,293,-358
509770754,777,-129,831,-43,293,-358
509776019,718,-152,822,-43,293,-358
509781284,604,-133,540,-43,293,-358
509786549,647,-3,451,-43,293,-358
509791813,704,-185,663,-43,293,-358
509797077,698,-220,617,-43,293,-358
509802341,623,-76,517,-43,293,-358
509807606,615,-44,873,-43,293,-358
509812873,695,-225,922,-43,293,-358
509818138,729,-145,644,-43,293,-358
509823402,748,-148,754,-43,293,-358
509828667,726,-262,857,-43,293,-358
509833931,731,-141,436,-43,293,-358
509839196,764,-94,728,-43,293,-358
509844460,691,-122,820,-43,293,-358
509849724,610,-138,626,-43,293,-358
509854989,610,-22,440,-43,293,-358
509860253,721,-173,741,-43,293,-358
509865737,696,-185,530,-43,293,-358
509871001,616,-89,581,-43,293,-358
509876266,672,-75,875,-43,293,-358
509881531,689,-236,863,-43,293,-358
509886795,819,-167,822,-43,293,-358
509892060,723,-133,707,-43,293,-358
509897325,622,-114,761,-43,293,-358
509902589,763,-212,875,-43,293,-358
509907854,731,-84,474,-52,249,-354
509913438,735,-129,833,-52,249,-354
509918703,633,-153,685,-52,249,-354
509923968,692,-107,572,-52,249,-354
509929232,748,-135,652,-52,249,-354
509934496,696,-150,481,-52,249,-354
509939760,628,-117,710,-52,249,-354
509945025,622,-11,833,-52,249,-354
509950289,703,-233,918,-52,249,-354
509955553,768,-193,625,-52,249,-354
509961037,678,-117,721,-52,249,-354
509966301,660,-135,869,-52,249,-354
509971566,717,-202,933,-52,249,-354
509976831,778,-101,590,-52,249,-354
509982095,757,-177,798,-52,249,-354
509987360,636,-141,832,-52,249,-354
509992625,706,-117,573,-52,249,-354
509997890,696,-74,709,-52,249,-354
510003155,678,-141,723,-52,249,-354
510008419,630,-133,625,-52,249,-354
510013684,565,-37,653,-52,249,-354
510018951,682,-206,788,-52,249,-354
510024215,744,-197,453,-52,249,-354
510029480,637,-74,587,-52,249,-354
510034745,631,-85,783,-52,249,-354
510040010,708,-187,927,-52,249,-354
510045274,862,-138,872,-52,249,-354
510050539,722,-153,660,-52,266,-350
510056121,660,-171,789,-52,266,-350
510061606,735,-157,766,-52,266,-350
510066871,734,-86,476,-52,266,-350
510072136,725,-123,770,-52,266,-350
510077401,628,-148,747,-52,266,-350
510082665,681,-130,517,-52,266,-350
510087931,738,-159,732,-52,266,-350
510093195,705,-161,504,-52,266,-350
510098459,598,-118,627,-52,266,-350
510103724,573,-39,835,-52,266,-350
510108988,682,-215,767,-52,266,-350
510114253,781,-202,611,-52,266,-350
510119518,655,-92,657,-52,266,-350
510124783,693,-241,840,-52,266,-350
510151455,728,-145,505,-52,266,-350
510156940,791,-93,765,-52,266,-350
510162204,734,-128,766,-52,266,-350
510167468,620,-184,680,-52,266,-350
510172733,690,-120,661,-52,266,-350
510177998,767,-165,732,-52,266,-350
510183262,725,-149,487,-52,266,-350
510188526,572,-81,594,-52,266,-350
510193792,574,42,834,4,371,-363
510199375,717,-223,607,4,371,-363
510204640,750,-230,524,4,371,-363
510209905,677,-96,876,4,371,-363
510215170,577,-82,766,4,371,-363
510220436,661,-170,624,4,371,-363
510225700,744,-139,636,4,371,-363
510230965,686,-85,838,4,371,-363
510236229,621,-140,844,4,371,-363
510241494,720,-147,588,4,371,-363
510246759,790,-99,737,4,371,-363
510252024,717,-154,647,4,371,-363
510257506,569,-159,608,4,371,-363
510262771,748,-102,724,4,371,-363
510268035,804,-187,635,4,371,-363
510273299,763,-193,657,4,371,-363
510278565,576,-84,734,4,371,-363
510283829,558,-46,853,4,371,-363
510289093,710,-190,551,4,371,-363
510294357,769,-239,481,4,371,-363
510299622,695,-100,820,4,371,-363
510304888,547,-76,626,4,371,-363
510310152,664,-159,644,4,371,-363
510315417,750,-162,624,4,371,-363
510320682,682,-90,877,4,371,-363
510325948,601,-188,957,4,371,-363
510331212,713,-165,651,-30,328,-367
510336794,841,-161,997,-30,328,-367
510342059,695,-145,721,-30,328,-367
510347323,593,-207,707,-30,328,-367
510352806,747,-126,818,-30,328,-367
510358071,872,-156,692,-30,328,-367
510363335,752,-194,530,-30,328,-367
510368793,585,-124,810,-30,328,-367
510374058,737,-159,845,-30,328,-367
510379322,778,-131,629,-30,328,-367
510384587,802,-181,622,-30,328,-367
510389852,607,-84,893,-30,328,-367
510395116,619,-102,808,-30,328,-367
510400381,672,-173,462,-30,328,-367
510405646,733,-169,670,-30,328,-367
510410912,685,-71,619,-30,328,-367
510416176,528,-129,686,-30,328,-367
510421441,737,-158,681,-30,328,-367
510426706,763,-180,560,-30,328,-367
510431971,681,-88,773,-30,328,-367
510437236,516,-77,600,-30,328,-367
510442500,700,-159,990,-30,328,-367
510447765,879,-172,752,-30,328,-367
510453248,710,-174,484,-30,328,-367
510458513,570,-72,998,-30,328,-367
510463778,672,-136,911,-30,328,-367
510469043,847,-144,608,-30,328,-367
510474307,802,-186,649,-113,161,-345
510479889,610,-174,687,-113,161,-345
510485154,678,-141,794,-113,161,-345
510490418,733,-66,657,-113,161,-345
510495683,765,-134,651,-113,161,-345
510500948,611,-141,835,-113,161,-345
510506212,611,-77,492,-113,161,-345
510511477,767,-163,790,-113,161,-345
510516741,797,-180,585,-113,161,-345
510522007,608,-72,541,-113,161,-345
510527271,505,-7,621,-113,161,-345
510532536,727,-208,556,-113,161,-345
510537801,800,-205,606,-113,161,-345
510543066,662,-72,600,-113,161,-345
510548330,478,-24,888,-113,161,-345
510553813,718,-234,832,-113,161,-345
510559077,805,-235,477,-113,161,-345
510564341,744,-149,723,-113,161,-345
510569606,496,-85,691,-113,161,-345
510574871,631,-136,623,-113,161,-345
510580138,803,-161,594,-113,161,-345
510585402,744,-138,715,-113,161,-345
510590666,568,-187,1000,-113,161,-345
510595931,628,-85,691,-113,161,-345
510601196,837,-151,854,-113,161,-345
510606460,746,-158,690,-113,161,-345
510611724,596,-193,884,-113,161,-345
510616989,666,-79,890,26,463,-363
510622572,868,-137,716,26,463,-363
510627836,791,-190,593,26,463,-363
510633101,614,-109,862,26,463,-363
510638365,615,-56,856,26,463,-363
510643630,785,-165,674,26,463,-363
510649114,838,-204,582,26,463,-363
510654378,641,-51,787,26,463,-363
510659643,598,-82,826,26,463,-363
510664909,729,-127,477,26,463,-363
510670173,866,-245,693,26,463,-363
510675439,701,-116,650,26,463,-363
510680703,542,-120,877,26,463,-363
510685968,765,-198,732,26,463,-363
510691232,809,-208,653,26,463,-363
510696497,710,-136,608,26,463,-363
510701762,423,-97,614,26,463,-363
510707026,673,-183,678,26,463,-363
510712290,828,-214,596,26,463,-363
510717556,712,-147,512,26,463,-363
510722822,442,-56,735,26,463,-363
510728086,650,-180,851,26,463,-363
510733351,843,-120,641,26,463,-363
510738616,739,-142,660,26,463,-363
510743882,528,-148,965,26,463,-363
510749365,590,-111,789,26,463,-363
510754630,759,-125,358,-96,157,-354
510760213,738,-120,795,-96,157,-354
510765477,489,-83,924,-96,157,-354
510770742,543,-85,574,-96,157,-354
510776007,784,-134,555,-96,157,-354
510781271,775,-156,675,-96,157,-354
510786536,517,-91,676,-96,157,-354
510791801,584,-26,822,-96,157,-354
510797066,797,-130,698,-96,157,-354
510802330,795,-206,621,-96,157,-354
510807595,589,-43,742,-96,157,-354
510812860,613,-59,992,-96,157,-354
510818125,828,-147,760,-96,157,-354
510823389,868,-192,447,-96,157,-354
510828654,714,-116,885,-96,157,-354
510833919,581,-52,926,-96,157,-354
510839185,776,-159,717,-96,157,-354
510844668,902,-247,631,-96,157,-354
510849934,704,-123,834,-96,157,-354
510855198,593,-125,987,-96,157,-354
510860462,705,-116,593,-96,157,-354
510865726,881,-227,533,-96,157,-354
510870991,729,-143,718,-96,157,-354
510876255,578,-133,739,-96,157,-354
510881519,736,-181,790,-96,157,-354
510886784,850,-205,660,-96,157,-354
510892049,757,-184,632,-96,157,-354
510897314,517,-154,779,13,411,-367
510902896,698,-188,757,13,411,-367
510908161,857,-205,591,13,411,-367
510913426,728,-127,635,13,411,-367
510918691,531,-100,802,13,411,-367
510923956,712,-191,761,13,411,-367
510929220,816,-179,538,13,411,-367
510934485,785,-154,679,13,411,-367
510939749,460,-89,727,13,411,-367
510945233,683,-178,773,13,411,-367
510950498,836,-198,575,13,411,-367
510955763,755,-129,696,13,411,-367
510961027,510,-125,798,13,411,-367
510966290,587,-128,460,13,411,-367
510971555,771,-141,624,13,411,-367
510976819,751,-170,638,13,411,-367
510982085,489,-111,672,13,411,-367
510987349,583,-68,662,13,411,-367
510992614,738,-123,524,13,411,-367
510997880,727,-140,598,13,411,-367
511003145,474,-75,653,13,411,-367
511008410,589,-85,757,13,411,-367
511013675,771,-168,632,13,411,-367
511018941,759,-149,468,13,411,-367
511024207,544,-43,808,13,411,-367
511029471,587,-122,722,13,411,-367
511034736,776,-187,712,13,411,-367
511040219,760,-153,629,-100,166,-350
511045801,469,-59,563,-100,166,-350
511051067,561,-78,632,-100,166,-350
511056331,741,-157,660,-100,166,-350
511061596,739,-144,730,-100,166,-350
511066860,548,-87,578,-100,166,-350
511072125,556,-60,617,-100,166,-350
511077390,754,-150,741,-100,166,-350
511082655,743,-163,659,-100,166,-350
511087920,603,-85,605,-100,166,-350
511093185,580,-76,806,-100,166,-350
511098449,719,-174,694,-100,166,-350
511103713,754,-156,724,-100,166,-350
511108979,571,-87,809,-100,166,-350
511114243,565,-110,945,-100,166,-350
511119507,762,-183,737,-100,166,-350
511124771,781,-174,682,-100,166,-350
511151673,530,-83,558,-100,166,-350
511156939,543,-92,553,-100,166,-350
511162203,736,-153,726,-100,166,-350
511167467,774,-143,696,-100,166,-350
511172732,564,-109,637,-100,166,-350
511177997,555,-53,617,-100,166,-350
511183261,728,-159,767,39,450,-358
511188843,725,-148,592,39,450,-358
511194108,527,-102,601,39,450,-358
511199372,592,-87,772,39,450,-358
511204637,733,-145,606,39,450,-358
511209903,736,-147,624,39,450,-358
511215168,530,-43,588,39,450,-358
511220433,556,-98,824,39,450,-358
511225697,727,-150,650,39,450,-358
511230964,742,-163,528,39,450,-358
511236447,540,-66,620,39,450,-358
511241711,596,-110,687,39,450,-358
511246977,723,-145,594,39,450,-358
511252240,769,-158,570,39,450,-358
511257505,584,-106,712,39,450,-358
511262770,580,-106,628,39,450,-358
511268035,745,-140,684,39,450,-358
511273299,731,-127,698,39,450,-358
511278564,555,-79,670,39,450,-358
511283829,580,-103,540,39,450,-358
511289093,737,-131,690,39,450,-358
511294358,736,-141,610,39,450,-358
511299623,578,-89,662,39,450,-358
511304889,610,-82,644,39,450,-358
511310153,739,-127,643,39,450,-358
511315418,724,-125,528,39,450,-358
511320683,558,-76,641,-65,231,-354
511326266,647,-135,880,-65,231,-354
511331531,788,-198,659,-65,231,-354
511337015,723,-159,529,-65,231,-354
511342279,564,-84,750,-65,231,-354
511347545,642,-137,774,-65,231,-354
511352809,783,-213,587,-65,231,-354
511358074,750,-174,541,-65,231,-354
511363338,586,-118,727,-65,231,-354
511368603,659,-143,748,-65,231,-354
511373869,768,-210,596,-65,231,-354
511379135,732,-152,573,-65,231,-354
511384399,605,-146,740,-65,231,-354
511389664,633,-134,661,-65,231,-354
511394929,794,-212,560,-65,231,-354
511400193,728,-137,530,-65,231,-354
511405651,623,-125,709,-65,231,-354
511410917,682,-129,801,-65,231,-354
511416181,835,-185,563,-65,231,-354
511421446,739,-153,549,-65,231,-354
511426711,637,-103,832,-65,231,-354
511432194,742,-138,912,-65,231,-354
511437459,827,-199,586,-65,231,-354
511442723,730,-121,742,-65,231,-354
511447988,638,-102,1027,-65,231,-354
511453253,727,-139,733,-65,231,-354
511458517,830,-202,535,-65,231,-354
511463783,778,-154,972,-74,227,-350
511469366,547,-162,870,-74,227,-350
511474631,700,-138,511,-74,227,-350
511479897,801,-157,620,-74,227,-350
511485162,736,-140,842,-74,227,-350
511490427,532,-127,789,-74,227,-350
511495692,687,-101,552,-74,227,-350
511500958,805,-144,701,-74,227,-350
511506221,709,-142,794,-74,227,-350
511511487,575,-118,688,-74,227,-350
511516751,730,-140,745,-74,227,-350
511522016,780,-195,810,-74,227,-350
511527280,642,-101,661,-74,227,-350
511532763,603,-99,706,-74,227,-350
511538028,706,-143,638,-74,227,-350
511543292,703,-152,641,-74,227,-350
511548557,558,-92,576,-74,227,-350
511553822,609,-127,676,-74,227,-350
511559086,739,-125,628,-74,227,-350
511564351,716,-150,565,-74,227,-350
511569616,618,-110,680,-74,227,-350
511574881,624,-133,678,-74,227,-350
511580145,774,-151,728,-74,227,-350
511585411,691,-115,468,-74,227,-350
511590677,593,-81,806,-74,227,-350
511595942,693,-145,823,-74,227,-350
511601206,790,-211,656,-74,227,-350
511606471,732,-154,501,-39,332,-354
511612053,595,-112,731,-39,332,-354
511617317,682,-156,782,-39,332,-354
511622582,840,-183,515,-39,332,-354
511628066,741,-111,758,-39,332,-354
511633331,632,-93,905,-39,332,-354
511638596,726,-122,777,-39,332,-354
511643860,812,-206,627,-39,332,-354
511649125,772,-167,1009,-39,332,-354
511654389,605,-131,993,-39,332,-354
511659656,698,-157,632,-39,332,-354
511664921,797,-212,625,-39,332,-354
511670186,710,-111,747,-39,332,-354
511675451,556,-112,806,-39,332,-354
511680716,697,-102,498,-39,332,-354
511685981,788,-168,825,-39,332,-354
511691245,698,-126,824,-39,332,-354
511696509,599,-97,772,-39,332,-354
511701774,719,-148,705,-39,332,-354
511707039,726,-195,702,-39,332,-354
511712302,623,-108,667,-39,332,-354
511717567,594,-139,600,-39,332,-354
511722831,684,-161,740,-39,332,-354
511728315,709,-117,598,-39,332,-354
511733581,620,-91,705,-39,332,-354
511738846,651,-114,650,-39,332,-354
511744110,774,-176,702,-21,328,-358
511749692,716,-160,579,-21,328,-358
511754958,606,-134,711,-21,328,-358
511760221,652,-155,829,-21,328,-358
511765486,799,-159,550,-21,328,-358
511770751,726,-139,535,-21,328,-358
511776017,630,-97,912,-21,328,-358
511781281,734,-105,894,-21,328,-358
511786546,809,-214,618,-21,328,-358
511791810,760,-131,831,-21,328,-358
511797075,579,-138,946,-21,328,-358
511802339,690,-150,727,-21,328,-358
511807604,780,-158,632,-21,328,-358
511812870,726,-113,866,-21,328,-358
511818135,578,-127,792,-21,328,-358
511823619,702,-125,679,-21,328,-358
511828884,783,-141,763,-21,328,-358
511834148,643,-141,758,-21,328,-358
511839413,604,-150,549,-21,328,-358
511844678,678,-154,725,-21,328,-358
511849943,693,-101,551,-21,328,-358
511855207,612,-96,598,-21,328,-358
511860471,675,-129,719,-21,328,-358
511865736,745,-125,680,-21,328,-358
511871001,718,-171,612,-21,328,-358
511876266,618,-79,640,-21,328,-358
511881531,687,-174,893,-21,328,-358
511886796,765,-213,709,-30,301,-354
511892379,696,-124,704,-30,301,-354
511897644,620,-90,936,-30,301,-354
511902909,700,-126,739,-30,301,-354
511908176,801,-208,671,-30,301,-354
511913440,729,-120,834,-30,301,-354
511918705,553,-127,868,-30,301,-354
511924188,663,-96,512,-30,301,-354
511929453,761,-133,766,-30,301,-354
511934717,679,-130,682,-30,301,-354
511939982,639,-148,722,-30,301,-354
511945246,683,-141,688,-30,301,-354
511950511,705,-139,655,-30,301,-354
511955775,607,-107,655,-30,301,-354
511961040,651,-138,649,-30,301,-354
511966304,719,-119,681,-30,301,-354
511971569,706,-150,572,-30,301,-354
511976833,623,-79,644,-30,301,-354
511982100,690,-167,820,-30,301,-354
511987365,798,-200,605,-30,301,-354
511992630,685,-84,577,-30,301,-354
511997895,609,-96,933,-30,301,-354
512003160,736,-112,936,-30,301,-354
512008425,810,-220,611,-30,301,-354
512013690,747,-126,842,-30,301,-354
512019173,539,-114,874,-30,301,-354
512024438,656,-82,511,-30,301,-354
512029703,796,-121,664,-39,284,-354
512035286,684,-163,683,-39,284,-354
512040551,629,-154,633,-39,284,-354
512045815,663,-132,693,-39,284,-354
512051080,713,-135,576,-39,284,-354
512056345,650,-94,681,-39,284,-354
512061610,672,-145,676,-39,284,-354
512066875,770,-217,749,-39,284,-354
512072140,702,-176,572,-39,284,-354
512077404,601,-106,596,-39,284,-354
512082669,732,-151,938,-39,284,-354
512087935,820,-209,590,-39,284,-354
512093199,730,-130,661,-39,284,-354
512098463,609,-116,1031,-39,284,-354
512103727,698,-148,759,-39,284,-354
512108992,781,-147,645,-39,284,-354
512114258,737,-162,865,-39,284,-354
512119741,583,-117,733,-39,284,-354
512125005,787,-193,655,-39,284,-354
512152455,719,-113,700,-39,284,-354
512157721,603,-81,857,-39,284,-354
512162985,698,-129,719,-39,284,-354
512168249,818,-217,623,-56,284,-371
512173832,747,-143,884,-56,284,-371
512179097,575,-96,650,-56,284,-371
512184361,687,-111,630,-56,284,-371
512189627,748,-167,774,-56,284,-371
512194893,666,-184,685,-56,284,-371
512200157,631,-141,609,-56,284,-371
512205422,675,-127,649,-56,284,-371
512210687,700,-138,613,-56,284,-371
512216170,628,-117,626,-56,284,-371
512221435,701,-162,931,-56,284,-371
512226699,801,-202,638,-56,284,-371
512231964,715,-136,747,-56,284,-371
512237228,619,-117,1009,-56,284,-371
512242492,698,-184,630,-56,284,-371
512247758,808,-203,669,-56,284,-371
512253023,713,-142,777,-56,284,-371
512258287,565,-124,798,-56,284,-371
512263552,661,-118,707,-56,284,-371
512268818,761,-171,778,-56,284,-371
512274083,664,-122,590,-56,284,-371
512279347,637,-127,644,-56,284,-371
512284612,719,-124,675,-56,284,-371
512289878,686,-128,681,-56,284,-371
512295143,646,-119,656,-56,284,-371
512300407,707,-169,899,-56,284,-371
512305671,790,-200,430,-56,284,-371
512310937,691,-135,673,-30,306,-354
512316738,590,-109,960,-30,306,-354
512322004,749,-93,650,-30,306,-354
512327268,744,-96,675,-30,306,-354
512332533,625,-88,837,-30,306,-354
512337798,563,-72,473,-30,306,-354
512343063,662,-67,679,-30,306,-354
512348326,761,-112,589,-30,306,-354
512353592,708,-165,584,-30,306,-354
512358857,655,-98,666,-30,306,-354
512364122,712,-181,544,-30,306,-354
512369387,689,-56,989,-30,306,-354
512374652,686,-151,938,-30,306,-354
512379918,767,-188,805,-30,306,-354
512385182,799,-190,782,-30,306,-354
512390447,654,-87,724,-30,306,-354
512395712,565,-116,872,-30,306,-354
512400978,696,-138,537,-30,306,-354
512406242,785,-234,780,-30,306,-354
512411724,608,-98,595,-30,306,-354
512416989,619,-75,603,-30,306,-354
512422253,707,-99,756,-30,306,-354
512427517,678,-132,656,-30,306,-354
512432784,647,-131,718,-30,306,-354
512438241,784,-175,962,-30,306,-354
512443505,793,-197,670,-30,306,-354
512448770,657,-71,676,-30,306,-354
512454035,558,-90,892,-26,345,-363
512459617,705,-123,707,-26,345,-363
512464883,803,-172,659,-26,345,-363
512470148,659,-142,697,-26,345,-363
512475413,616,-140,675,-26,345,-363
512480677,680,-115,639,-26,345,-363
512485943,699,-167,706,-26,345,-363
512491207,671,-141,698,-26,345,-363
512496471,760,-168,843,-26,345,-363
512501737,777,-205,605,-26,345,-363
512507001,678,-124,748,-26,345,-363
512512483,553,-72,918,-26,345,-363
512517748,751,-174,664,-26,345,-363
512523013,791,-178,723,-26,345,-363
512528278,664,-122,836,-26,345,-363
512533542,573,-97,591,-26,345,-363
512538807,641,-104,606,-26,345,-363
512544072,718,-142,599,-26,345,-363
512549336,712,-132,708,-26,345,-363
512554601,717,-165,813,-26,345,-363
512559867,726,-204,606,-26,345,-363
512565132,696,-71,791,-26,345,-363
512570396,573,-114,970,-26,345,-363
512575660,744,-183,709,-26,345,-363
512580926,764,-152,719,-26,345,-363
512586190,699,-158,875,-26,345,-363
512591454,556,-92,562,-26,345,-363
512596719,624,-131,708,-26,323,-350
512602303,790,-118,364,-26,323,-350
512607787,705,-110,509,-26,323,-350
512613051,724,-199,868,-26,323,-350
512618315,693,-215,408,-26,323,-350
512623581,722,-231,1113,-26,323,-350
512628846,737,-230,908,-26,323,-350
512634110,770,-269,775,-26,323,-350
512639374,769,-83,633,-26,323,-350
512644639,634,-122,694,-26,323,-350
512649904,578,-27,595,-26,323,-350
512655169,659,-118,598,-26,323,-350
512660434,742,-137,592,-26,323,-350
512665699,702,-114,735,-26,323,-350
512670964,691,-147,737,-26,323,-350
512676228,743,-208,635,-26,323,-350
512681492,700,-69,764,-26,323,-350
512686757,638,-129,872,-26,323,-350
512692022,728,-178,687,-26,323,-350
512697286,761,-212,895,-26,323,-350
512702552,697,-101,825,-26,323,-350
512708036,514,-19,568,-26,323,-350
512713301,668,-192,782,-26,323,-350
512718566,886,-232,538,-26,323,-350
512723831,487,-168,430,-26,323,-350
512729096,624,-111,801,-26,323,-350
512734359,633,-211,461,-43,249,-358
512739942,716,-136,982,-43,249,-358
512745207,714,-209,1158,-43,249,-358
512750471,749,-201,665,-43,249,-358
512755735,809,-185,909,-43,249,-358
512761000,695,-192,837,-43,249,-358
512766263,549,-63,649,-43,249,-358
512771528,629,-121,680,-43,249,-358
512776793,802,-211,429,-43,249,-358
512782058,686,-157,652,-43,249,-358
512787322,636,-117,617,-43,249,-358
512792587,749,-278,835,-43,249,-358
512797851,739,-112,934,-43,249,-358
512803334,692,-135,1049,-43,249,-358
512808599,736,-157,669,-43,249,-358
512813866,699,-141,835,-43,249,-358
512819131,713,-96,693,-43,249,-358
512824395,522,-89,750,-43,249,-358
512829660,733,-123,533,-43,249,-358
512834925,904,-297,783,-43,249,-358
512840190,488,26,198,-43,249,-358
512845454,623,-83,713,-43,249,-358
512850718,760,-122,782,-43,249,-358
512855983,674,-146,667,-43,249,-358
512861247,732,-158,952,-43,249,-358
512866512,777,-210,871,-43,249,-358
512871777,679,-235,1006,-43,249,-358
512877042,647,-150,619,-43,293,-363
512882624,579,-146,809,-43,293,-363
512887890,676,-118,420,-43,293,-363
512893155,813,-337,786,-43,293,-363
512898420,469,73,360,-43,293,-363
512903904,629,-174,717,-43,293,-363
512909168,793,-28,1092,-43,293,-363
512914434,768,-162,854,-43,293,-363
512919699,769,-226,681,-43,293,-363
512924964,787,-255,689,-43,293,-363
512930228,694,-105,118,-43,293,-363
512935492,543,-122,417,-43,293,-363
512940756,642,-122,1048,-43,293,-363
512946021,850,-65,1034,-43,293,-363
512951285,725,-255,578,-43,293,-363
512956550,704,-116,1164,-43,293,-363
512961815,518,-118,481,-43,293,-363
512967080,572,-101,335,-43,293,-363
512972344,685,-40,536,-43,293,-363
512977609,660,-156,459,-43,293,-363
512982874,718,-72,687,-43,293,-363
512988139,765,-324,1035,-43,293,-363
512993403,691,68,789,-43,293,-363
512998886,729,-73,1078,-43,293,-363
513004151,731,-147,678,-43,293,-363
513009415,736,-141,1083,-43,293,-363
513014680,636,38,183,-43,293,-363
513019946,596,-13,992,-26,341,-363
513025528,658,-212,287,-26,341,-363
513030793,919,-360,916,-26,341,-363
513036058,524,-100,350,-26,341,-363
513041322,552,-85,545,-26,341,-363
513046587,748,-103,1079,-26,341,-363
513051853,663,-84,465,-26,341,-363
513057117,696,-102,697,-26,341,-363
513062382,768,-159,952,-26,341,-363
513067647,773,-139,354,-26,341,-363
513072913,725,-104,818,-26,341,-363
513078177,616,-146,1022,-26,341,-363
513083442,698,-187,651,-26,341,-363
513088707,779,-159,884,-26,341,-363
513093972,719,-187,930,-26,341,-363
513099455,558,-59,649,-26,341,-363
513104719,591,-152,499,-26,341,-363
513109984,845,-146,505,-26,341,-363
513115249,508,-11,325,-26,341,-363
513120514,634,-47,689,-26,341,-363
513125779,776,-127,523,-26,341,-363
513152455,639,-166,740,-26,341,-363
513157721,567,-121,917,-21,315,-363
513163304,720,-96,729,-21,315,-363
513168569,755,-213,740,-21,315,-363
513173834,688,-187,947,-21,315,-363
513179098,615,-134,536,-21,315,-363
513184362,663,-143,602,-21,315,-363
513189628,707,-140,657,-21,315,-363
513195112,633,-110,583,-21,315,-363
513200376,688,-149,749,-21,315,-363
513205641,781,-196,618,-21,315,-363
513210907,674,-59,679,-21,315,-363
513216171,619,-116,984,-21,315,-363
513221438,729,-126,801,-21,315,-363
513226702,793,-223,832,-21,315,-363
513231968,725,-154,827,-21,315,-363
513237231,559,-126,780,-21,315,-363
513242496,745,-121,625,-21,315,-363
513247761,797,-210,854,-21,315,-363
513253025,624,-96,543,-21,315,-363
513258289,605,-126,580,-21,315,-363
513263554,716,-96,717,-21,315,-363
513268818,703,-124,562,-21,315,-363
513274084,642,-93,575,-21,315,-363
513279348,695,-151,726,-21,315,-363
513284615,773,-218,624,-21,315,-363
513289880,677,-86,651,-21,315,-363
513295364,621,-111,904,-21,315,-363
513300628,728,-160,715,-35,315,-350
513306212,806,-147,642,-35,315,-350
513311476,728,-127,755,-35,315,-350
513316741,577,-99,705,-35,315,-350
513322006,678,-127,669,-35,315,-350
513327271,729,-165,731,-35,315,-350
513332536,673,-129,757,-35,315,-350
513337801,645,-152,652,-35,315,-350
513343065,745,-161,702,-35,315,-350
513348329,701,-166,584,-35,315,-350
513353594,632,-130,622,-35,315,-350
513358859,725,-167,873,-35,315,-350
513364124,794,-175,594,-35,315,-350
513369388,691,-87,768,-35,315,-350
513374654,595,-124,986,-35,315,-350
513379920,702,-124,595,-35,315,-350
513385184,796,-187,703,-35,315,-350
513390449,723,-153,693,-35,315,-350
513395932,574,-112,607,-35,315,-350
513401196,654,-95,679,-35,315,-350
513406461,729,-160,615,-35,315,-350
513411725,666,-113,658,-35,315,-350
513416989,690,-153,710,-35,315,-350
513422254,713,-116,699,-35,315,-350
513427519,702,-178,680,-35,315,-350
513432785,632,-103,595,-35,315,-350
513438049,739,-173,902,-35,315,-350
513443313,787,-208,623,-48,271,-354
513448895,720,-132,654,-48,271,-354
513454160,598,-123,980,-48,271,-354
513459425,708,-151,516,-48,271,-354
513464689,792,-137,666,-48,271,-354
513470147,694,-148,735,-48,271,-354
513475412,574,-86,707,-48,271,-354
513480676,650,-129,692,-48,271,-354
513485942,719,-169,589,-48,271,-354
513491425,665,-125,712,-48,271,-354
513496690,676,-142,675,-48,271,-354
513501956,739,-154,675,-48,271,-354
513507219,694,-133,692,-48,271,-354
513512484,630,-100,627,-48,271,-354
513517749,752,-159,911,-48,271,-354
513523014,852,-210,610,-48,271,-354
513528279,690,-82,766,-48,271,-354
513533545,542,-95,886,-48,271,-354
513538809,670,-150,592,-48,271,-354
513544074,789,-122,756,-48,271,-354
513549340,709,-121,610,-48,271,-354
513554605,587,-79,588,-48,271,-354
513559870,685,-92,715,-48,271,-354
513565136,730,-162,725,-48,271,-354
513570399,640,-129,700,-48,271,-354
513575664,639,-132,642,-48,271,-354
513580930,686,-148,742,-48,271,-354
513586196,675,-123,542,-56,275,-363
513591997,617,-111,681,-56,275,-363
513597262,741,-153,984,-56,275,-363
513602527,819,-207,640,-56,275,-363
513607792,715,-138,667,-56,275,-363
513613057,577,-119,980,-56,275,-363
513618321,700,-162,671,-56,275,-363
513623586,768,-130,608,-56,275,-363
513628851,736,-120,893,-56,275,-363
513634116,585,-101,668,-56,275,-363
513639380,695,-76,505,-56,275,-363
513644645,748,-180,834,-56,275,-363
513649911,625,-89,536,-56,275,-363
513655175,592,-132,641,-56,275,-363
513660439,755,-101,922,-56,275,-363
513665704,725,-148,487,-56,275,-363
513670969,656,-91,508,-56,275,-363
513676233,685,-93,817,-56,275,-363
513681497,705,-218,606,-56,275,-363
513686981,765,-114,759,-56,275,-363
513692246,644,-196,990,-56,275,-363
513697511,703,-122,656,-56,275,-363
513702775,806,-176,606,-56,275,-363
513708040,673,-86,700,-56,275,-363
513713304,584,-170,919,-56,275,-363
513718569,722,-128,583,-56,275,-363
513723834,762,-153,678,-48,275,-354
513729416,685,-159,762,-48,275,-354
513734681,624,-89,654,-48,275,-354
513739947,668,-139,530,-48,275,-354
513745211,786,-194,780,-48,275,-354
513750476,605,-132,512,-48,275,-354
513755740,619,-119,697,-48,275,-354
513761005,834,-191,1216,-48,275,-354
513766268,658,-73,255,-48,275,-354
513771533,640,-110,619,-48,275,-354
513776798,710,-149,928,-48,275,-354
513782063,726,-238,381,-48,275,-354
513787546,757,-77,983,-48,275,-354
513792811,641,-272,906,-48,275,-354
513798075,718,-153,646,-48,275,-354
513803342,764,-167,780,-48,275,-354
513808607,677,-68,665,-48,275,-354
513813872,597,-162,873,-48,275,-354
513819137,708,-164,457,-48,275,-354
513824401,735,-157,841,-48,275,-354
513829665,717,-119,1013,-48,275,-354
513834931,568,-25,449,-48,275,-354
513840195,733,-144,597,-48,275,-354
513845460,796,-238,965,-48,275,-354
513850724,582,-214,1114,-48,275,-354
513855989,512,-82,527,-48,275,-354
513861254,645,-185,617,-48,275,-354
513866518,822,-39,176,-43,284,-350
513872101,595,-105,575,-43,284,-350
513877365,683,-122,976,-43,284,-350
513882848,800,-92,-128,-43,284,-350
513888113,725,-116,607,-43,284,-350
513893377,797,-163,907,-43,284,-350
513898642,700,-168,612,-43,284,-350
513903908,799,-113,-105,-43,284,-350
513909173,651,-26,1116,-43,284,-350
513914438,631,-146,1169,-43,284,-350
513919703,752,-105,540,-43,284,-350
513924968,798,-133,383,-43,284,-350
513930233,772,-150,709,-43,284,-350
513935497,612,-189,983,-43,284,-350
513940762,740,-214,517,-43,284,-350
513946027,762,-258,952,-43,284,-350
513951291,730,-228,723,-43,284,-350
513956556,611,-105,858,-43,284,-350
513961820,891,-179,676,-43,284,-350
513967085,726,-154,1182,-43,284,-350
513972349,661,-176,1053,-43,284,-350
513977614,578,17,706,-43,284,-350
513983097,872,-243,587,-43,284,-350
513988362,945,-273,780,-43,284,-350
513993627,448,108,397,-43,284,-350
513998892,480,74,638,-43,284,-350
514004157,751,-123,260,-43,284,-350
514009421,903,-135,422,-35,284,-354
514015004,511,-87,338,-35,284,-354
514020268,699,-131,1111,-35,284,-354
514025533,657,-21,892,-35,284,-354
514030797,690,-55,35,-35,284,-354
514036062,539,-156,796,-35,284,-354
514041327,698,-203,908,-35,284,-354
514046592,760,-142,1221,-35,284,-354
514051857,737,-177,344,-35,284,-354
514057122,497,-110,815,-35,284,-354
514062387,666,-278,887,-35,284,-354
514067653,729,-99,1190,-35,284,-354
514072919,712,-48,465,-35,284,-354
514078402,626,-116,867,-35,284,-354
514083666,649,-269,545,-35,284,-354
514088931,776,-230,612,-35,284,-354
514094195,757,-80,1178,-35,284,-354
514099459,646,-203,639,-35,284,-354
514104724,677,-146,323,-35,284,-354
514109989,725,-245,417,-35,284,-354
514115253,722,-135,1241,-35,284,-354
514120518,592,-144,527,-35,284,-354
514125783,693,-184,852,-39,371,-363
514152773,832,-239,183,-39,371,-363
514158038,697,-57,997,-39,371,-363
514163302,681,-251,1091,-39,371,-363
514168567,783,-143,694,-39,371,-363
514173831,892,-293,320,-39,371,-363
514179315,743,-228,592,-39,371,-363
514184581,681,-172,1009,-39,371,-363
514189846,771,-192,892,-39,371,-363
514195113,815,-178,214,-39,371,-363
514200377,671,-162,684,-39,371,-363
514205641,669,-169,750,-39,371,-363
514210907,803,-198,866,-39,371,-363
514216172,827,-251,565,-39,371,-363
514221436,693,-283,663,-39,371,-363
514226700,643,-114,991,-39,371,-363
514231966,760,-212,838,-39,371,-363
514237230,845,-204,410,-39,371,-363
514242494,662,-123,710,-39,371,-363
514247759,620,-98,1116,-39,371,-363
514253024,765,-166,760,-39,371,-363
514258289,811,-109,46,-39,371,-363
514263554,730,-204,1054,-39,371,-363
514268818,668,-194,1126,-39,371,-363
514274302,766,-213,804,-39,371,-363
514279567,847,-218,91,-39,371,-363
514284831,694,-94,670,-39,371,-363
514290096,709,-281,1071,-26,310,-371
514295678,751,-193,750,-26,310,-371
514300943,882,-214,394,-26,310,-371
514306207,664,-116,712,-26,310,-371
514311471,649,-133,680,-26,310,-371
514316736,749,-237,1031,-26,310,-371
514322001,840,-185,251,-26,310,-371
514327265,684,-194,434,-26,310,-371
514332530,645,-148,999,-26,310,-371
514337794,781,-216,900,-26,310,-371
514343059,783,-264,374,-26,310,-371
514348323,645,-189,834,-26,310,-371
514353589,636,-138,994,-26,310,-371
514358854,727,-149,657,-26,310,-371
514364119,820,-252,500,-26,310,-371
514369384,771,-97,934,-26,310,-371
514374867,676,-161,1094,-26,310,-371
514380132,724,-144,529,-26,310,-371
514385397,834,-274,156,-26,310,-371
514390661,726,-13,923,-26,310,-371
514395927,744,-304,1006,-26,310,-371
514401191,612,-128,598,-26,310,-371
514406456,818,-282,522,-26,310,-371
514411720,764,-156,1251,-26,310,-371
514416985,608,-316,644,-26,310,-371
514422249,647,-218,403,-26,310,-371
514427514,820,-259,803,-26,310,-371
514432779,732,-187,682,-100,148,-350
514438362,648,-189,900,-100,148,-350
514443627,676,-163,642,-100,148,-350
514448893,804,-272,725,-100,148,-350
514454157,656,-201,874,-100,148,-350
514459423,487,-70,602,-100,148,-350
514464688,697,-198,514,-100,148,-350
514470172,799,-152,689,-100,148,-350
514475438,751,-153,696,-100,148,-350
514480703,547,-156,714,-100,148,-350
514485968,637,-257,606,-100,148,-350
514491232,832,-191,1239,-100,148,-350
514496496,709,-130,-167,-100,148,-350
514501761,431,-64,1254,-100,148,-350
514507217,631,-354,462,-100,148,-350
514512482,491,148,887,-100,148,-350
514517747,776,-99,-482,-100,148,-350
514523012,365,-220,844,-100,148,-350
514528276,667,-213,821,-100,148,-350
514533541,732,-186,309,-100,148,-350
514538805,946,-133,639,-100,148,-350
514544070,430,-140,872,-100,148,-350
514549333,524,-59,1002,-100,148,-350
514554598,971,-160,591,-100,148,-350
514559864,552,-2,818,-100,148,-350
514565129,457,37,492,-100,148,-350
514570612,667,26,1107,-100,148,-350
514575879,966,-264,534,30,437,-363
514581461,547,2,902,30,437,-363
514586726,616,-203,717,30,437,-363
514591991,656,7,790,30,437,-363
514597255,926,-176,652,30,437,-363
514602519,754,-370,1203,30,437,-363
514607784,760,-214,882,30,437,-363
514613049,693,-226,1015,30,437,-363
514618313,919,101,1283,30,437,-363
514623578,959,-86,542,30,437,-363
514628843,436,-323,995,30,437,-363
514634107,657,-356,145,30,437,-363
514639371,746,-61,492,30,437,-363
514644636,902,-338,249,30,437,-363
514649902,644,-243,709,30,437,-363
514655166,563,-176,1070,30,437,-363
514660431,695,-218,388,30,437,-363
514665915,737,-104,902,30,437,-363
514671180,618,-93,277,30,437,-363
514676445,401,-64,860,30,437,-363
514681709,689,-120,441,30,437,-363
514686975,719,-165,398,30,437,-363
514692239,832,-98,753,30,437,-363
514697503,378,-133,688,30,437,-363
514702769,608,12,957,30,437,-363
514708033,975,-360,960,30,437,-363
514713297,511,118,792,-56,126,-350
514718880,679,-5,939,-56,126,-350
514724144,633,-114,1264,-56,126,-350
514729409,908,-302,551,-56,126,-350
514734676,701,-156,930,-56,126,-350
514739942,637,-14,776,-56,126,-350
514745206,804,-397,370,-56,126,-350
514750471,930,-177,734,-56,126,-350
514755735,942,-252,511,-56,126,-350
514761000,586,-261,1201,-56,126,-350
514766483,729,-263,364,-56,126,-350
514771747,709,-192,296,-56,126,-350
514777013,886,-242,1045,-56,126,-350
514782277,576,-135,50,-56,126,-350
514787542,429,-4,1083,-56,126,-350
514792807,676,-168,649,-56,126,-350
514798071,629,-153,131,-56,126,-350
514803336,673,73,424,-56,126,-350
514808601,345,379,-19,-56,126,-350
514813866,598,136,769,-56,126,-350
514819132,895,-121,532,-56,126,-350
514824396,416,-30,1091,-56,126,-350
514829661,809,-32,1107,-56,126,-350
514834926,777,-62,884,-56,126,-350
514840190,877,-69,632,-56,126,-350
514845454,883,-254,357,-56,126,-350
514850719,587,17,1217,-56,126,-350
514855984,908,-461,550,52,485,-354
514861785,765,-164,657,52,485,-354
514867051,889,-226,746,52,485,-354
514872315,557,-247,1120,52,485,-354
514877581,540,127,1228,52,485,-354
514882846,797,-242,284,52,485,-354
514888111,601,19,121,52,485,-354
514893375,724,-25,691,52,485,-354
514898640,377,18,312,52,485,-354
514903906,629,-58,744,52,485,-354
514909170,804,-137,326,52,485,-354
514914435,494,-29,1085,52,485,-354
514919700,710,-191,834,52,485,-354
514924965,835,-298,732,52,485,-354
514930228,917,-111,845,52,485,-354
514935493,867,-310,696,52,485,-354
514940758,739,-211,1203,52,485,-354
514946023,866,-256,1094,52,485,-354
514951287,748,21,105,52,485,-354
514956553,479,-304,628,52,485,-354
514962036,501,-229,-299,52,485,-354
514967300,381,165,820,52,485,-354
514972566,741,42,592,52,485,-354
514977830,709,-164,400,52,485,-354
514983095,476,74,1013,52,485,-354
514988361,641,-108,1353,52,485,-354
514993627,745,55,527,52,485,-354
514998892,928,-325,1052,-48,188,-371
515004475,691,-73,207,-48,188,-371
515009740,668,-69,564,-48,188,-371
515015005,894,-228,198,-48,188,-371
515020270,829,-133,729,-48,188,-371
515025534,845,-133,1130,-48,188,-371
515030799,650,-354,501,-48,188,-371
515036064,426,88,771,-48,188,-371
515041328,802,-329,870,-48,188,-371
515046593,734,-28,581,-48,188,-371
515051858,405,139,1247,-48,188,-371
515057341,461,188,159,-48,188,-371
515062606,785,-102,983,-48,188,-371
515067871,934,-313,663,-48,188,-371
515073136,716,-11,670,-48,188,-371
515078399,640,-343,1105,-48,188,-371
515083666,993,-472,-236,-48,188,-371
515088931,740,-159,508,-48,188,-371
515094197,875,-128,1225,-48,188,-371
515099461,491,-179,-409,-48,188,-371
515104726,458,121,960,-48,188,-371
515109991,712,67,730,-48,188,-371
515115255,773,-151,797,-48,188,-371
515120519,376,121,1161,-48,188,-371
515125785,749,-410,1602,-48,236,-354
515152772,1074,-455,623,-48,236,-354
515158255,818,-109,599,-48,236,-354
515163520,352,-103,247,-48,236,-354
515168785,516,-236,-188,-48,236,-354
515174050,457,117,-178,-48,236,-354
515179314,632,59,693,-48,236,-354
515184579,785,-353,634,-48,236,-354
515189844,614,20,1083,-48,236,-354
515195109,675,-73,1214,-48,236,-354
515200373,709,-250,-51,-48,236,-354
515205638,901,-140,574,-48,236,-354
515210903,882,-220,1474,-48,236,-354
515216168,614,-262,137,-48,236,-354
515221433,618,-55,940,-48,236,-354
515226697,740,-75,857,-48,236,-354
515231963,507,-26,518,-48,236,-354
515237227,417,53,1045,-48,236,-354
515242491,832,-61,957,-48,236,-354
515247756,745,-130,411,-48,236,-354
515253239,773,-234,724,-48,236,-354
515258503,1023,-220,1754,-48,236,-354
515263768,873,-309,821,-48,236,-354
515269033,522,-30,1078,-48,236,-354
515274297,744,-151,967,-48,236,-354
515279563,586,8,950,-13,310,-363
515285145,643,5,1238,-13,310,-363
515290411,490,40,637,-13,310,-363
515295675,724,-74,1191,-13,310,-363
515300942,785,-275,704,-13,310,-363
515306206,658,-165,214,-13,310,-363
515311471,971,-374,1268,-13,310,-363
515316735,865,-248,1439,-13,310,-363
515322000,682,-236,750,-13,310,-363
515327265,725,-143,874,-13,310,-363
515332529,380,-22,1404,-13,310,-363
515337794,484,-110,764,-13,310,-363
515343059,743,-111,1177,-13,310,-363
515348323,760,-210,602,-13,310,-363
515353806,655,-75,437,-13,310,-363
515359071,889,-164,1388,-13,310,-363
515364335,698,-328,1169,-13,310,-363
515369600,593,-64,298,-13,310,-363
515374865,830,-202,1072,-13,310,-363
515380131,559,-99,1274,-13,310,-363
515385395,683,21,1548,-13,310,-363
515390660,696,124,758,-13,310,-363
515395927,756,-281,835,-13,310,-363
515401192,795,-220,815,-13,310,-363
515406457,732,-326,1394,-13,310,-363
515411721,538,-130,729,-13,310,-363
515416986,806,-85,504,-13,310,-363
515422250,646,-34,505,0,297,-354
515427833,421,-6,781,0,297,-354
515433097,694,45,1319,0,297,-354
515438362,708,-218,51,0,297,-354
515443627,806,-337,1042,0,297,-354
515449111,753,-185,672,0,297,-354
515454375,731,-214,275,0,297,-354
515459641,587,-210,1078,0,297,-354
515464906,839,-235,1245,0,297,-354
515470171,664,-85,421,0,297,-354
515475436,366,83,993,0,297,-354
515480701,876,126,1746,0,297,-354
515485966,583,-346,93,0,297,-354
515491230,694,-259,727,0,297,-354
515496494,843,-334,1998,0,297,-354
515501759,616,-95,-805,0,297,-354
515507025,598,-116,997,0,297,-354
515512289,712,-53,1019,0,297,-354
515517554,469,-29,-64,0,297,-354
515522819,613,49,353,0,297,-354
515528085,755,-27,810,0,297,-354
515533349,644,-257,-37,0,297,-354
515538807,814,-271,517,0,297,-354
515544072,738,-196,822,0,297,-354
515549556,639,-257,-152,0,297,-354
515554821,625,-90,303,0,297,-354
515560085,570,151,605,-13,306,-363
515565667,559,-108,575,-13,306,-363
515570932,635,-67,40,-13,306,-363
515576196,644,-251,676,-13,306,-363
515581461,916,-142,1492,-13,306,-363
515586725,649,-207,24,-13,306,-363
515591990,869,-316,336,-13,306,-363
515597254,563,-115,1294,-13,306,-363
515602518,691,45,-424,-13,306,-363
515607785,764,111,826,-13,306,-363
515613049,743,-79,790,-13,306,-363
515618313,904,-298,1742,-13,306,-363
515623579,851,-264,777,-13,306,-363
515628844,646,-208,861,-13,306,-363
515634108,844,-252,1274,-13,306,-363
515639372,483,11,304,-13,306,-363
515644856,591,-156,799,-13,306,-363
515650120,752,-59,1059,-13,306,-363
515655385,866,-236,942,-13,306,-363
515660651,837,-183,667,-13,306,-363
515665917,760,-187,673,-13,306,-363
515671181,738,-273,962,-13,306,-363
515676446,445,182,305,-13,306,-363
515681711,673,87,1090,-13,306,-363
515686975,720,-21,1066,-13,306,-363
515692239,741,-162,915,-13,306,-363
515697503,900,-108,981,-13,306,-363
515702767,558,-259,920,-26,293,-350
515708351,769,-165,976,-26,293,-350
515713617,627,-36,445,-26,293,-350
515718882,527,-62,926,-26,293,-350
515724147,692,79,1187,-26,293,-350
515729411,831,-503,247,-26,293,-350
515734676,812,-302,466,-26,293,-350
515739942,819,-16,880,-26,293,-350
515745425,755,-147,-97,-26,293,-350
515750690,508,-180,163,-26,293,-350
515755955,662,-108,1380,-26,293,-350
515761219,710,-147,920,-26,293,-350
515766484,650,-3,426,-26,293,-350
515771749,787,-188,549,-26,293,-350
515777014,703,-197,1172,-26,293,-350
515782278,645,-259,517,-26,293,-350
515787543,559,-195,309,-26,293,-350
515792807,670,93,725,-26,293,-350
515798071,609,73,399,-26,293,-350
515803336,922,-297,901,-26,293,-350
515808601,778,-184,661,-26,293,-350
515813867,780,-232,1130,-26,293,-350
515819132,533,-201,1045,-26,293,-350
515824396,719,63,380,-26,293,-350
515829661,725,-6,991,-26,293,-350
515834927,795,-177,808,-26,293,-350
515840410,815,-157,816,-26,293,-350
515845674,842,-159,307,-26,275,-367
515851257,666,-232,1160,-26,275,-367
515856522,627,-30,375,-26,275,-367
515861787,571,-102,255,-26,275,-367
515867052,640,-119,1069,-26,275,-367
515872316,684,-182,637,-26,275,-367
515877581,871,-245,881,-26,275,-367
515882846,737,-213,694,-26,275,-367
515888111,790,-194,774,-26,275,-367
515893375,486,-101,802,-26,275,-367
515898640,573,69,991,-26,275,-367
515903906,696,50,945,-26,275,-367
515909171,735,-222,682,-26,275,-367
515914437,863,-140,1319,-26,275,-367
515919701,724,-234,62,-26,275,-367
515924966,677,-224,1156,-26,275,-367
515930230,613,-124,534,-26,275,-367
515935495,561,-50,354,-26,275,-367
515940979,615,-104,785,-26,275,-367
515946243,635,-206,548,-26,275,-367
515951509,925,-285,1171,-26,275,-367
515956773,658,-241,286,-26,275,-367
515962038,786,-213,840,-26,275,-367
515967302,536,-95,865,-26,275,-367
515972567,605,-68,956,-26,275,-367
515977831,686,-13,842,-26,275,-367
515983095,723,-135,678,-26,275,-367
515988360,740,-95,987,-43,275,-358
515993943,768,-169,497,-43,275,-358
515999207,672,-285,546,-43,275,-358
516004472,674,-105,809,-43,275,-358
516009737,614,-63,652,-43,275,-358
516015003,632,-49,216,-43,275,-358
516020268,780,-169,1516,-43,275,-358
516025533,816,-236,914,-43,275,-358
516030798,660,-172,429,-43,275,-358
516036281,784,-200,777,-43,275,-358
516041546,482,-97,1049,-43,275,-358
516046811,599,-100,914,-43,275,-358
516052075,621,-119,230,-43,275,-358
516057340,867,-62,924,-43,275,-358
516062605,723,-133,884,-43,275,-358
516067870,838,-290,-177,-43,275,-358
516073136,623,-163,280,-43,275,-358
516078400,580,-35,914,-43,275,-358
516083665,697,-240,980,-43,275,-358
516088931,744,-134,376,-43,275,-358
516094195,818,-231,1055,-43,275,-358
516099460,705,-332,970,-43,275,-358
516104724,681,-30,566,-43,275,-358
516109989,654,9,483,-43,275,-358
516115253,636,-151,1232,-43,275,-358
516120518,564,-73,121,-43,275,-358
516125784,439,-20,108,-21,310,-358
516152991,666,-55,1398,-21,310,-358
516158256,608,-123,546,-21,310,-358
516163520,720,-71,531,-21,310,-358
516168785,906,-115,1165,-21,310,-358
516174050,608,-222,1120,-21,310,-358
516179314,783,-156,916,-21,310,-358
516184578,579,-138,410,-21,310,-358
516189843,614,-63,953,-21,310,-358
516195108,662,-25,847,-21,310,-358
516200372,817,-175,807,-21,310,-358
516205636,825,-157,752,-21,310,-358
516210902,784,-204,749,-21,310,-358
516216169,680,-193,1121,-21,310,-358
516221434,555,-40,882,-21,310,-358
516226699,662,33,1002,-21,310,-358
516231964,685,-208,726,-21,310,-358
516237447,777,-160,1323,-21,310,-358
516242712,856,-130,186,-21,310,-358
516247977,664,-217,455,-21,310,-358
516253240,741,-235,1011,-21,310,-358
516258504,691,-153,992,-21,310,-358
516263769,543,-283,-246,-21,310,-358
516269034,893,15,1427,-26,301,-354
516274616,855,-266,1470,-26,301,-354
516279881,622,-181,197,-26,301,-354
516285146,713,-108,1015,-26,301,-354
516290411,541,-167,1236,-26,301,-354
516295676,641,-55,716,-26,301,-354
516300941,793,-83,487,-26,301,-354
516306206,807,-151,639,-26,301,-354
516311470,846,-234,890,-26,301,-354
516316734,453,-57,892,-26,301,-354
516321999,576,-155,1181,-26,301,-354
516327264,645,-67,845,-26,301,-354
516332747,765,-152,732,-26,301,-354
516338012,716,-109,728,-26,301,-354
516343276,847,-156,-428,-26,301,-354
516348541,647,-163,253,-26,301,-354
516353805,715,-28,740,-26,301,-354
516359070,649,-142,1026,-26,301,-354
516364334,607,-222,358,-26,301,-354
516369599,808,-182,774,-26,301,-354
516374864,698,-299,921,-26,301,-354
516380130,706,-236,740,-26,301,-354
516385394,594,-60,279,-26,301,-354
516390658,613,-213,156,-26,301,-354
516395924,709,-187,1202,-26,301,-354
516401188,741,-253,611,-26,301,-354
516406453,687,-281,674,-26,301,-354
516411717,709,-163,935,-30,249,-358
516417300,434,-56,799,-30,249,-358
516422565,501,-37,133,-30,249,-358
516427831,669,-37,310,-30,249,-358
516433315,830,-236,704,-30,249,-358
516438581,788,-195,545,-30,249,-358
516443846,826,-198,1281,-30,249,-358
516449111,552,-30,917,-30,249,-358
516454375,565,2,633,-30,249,-358
516459640,715,-148,518,-30,249,-358
516464906,551,-132,459,-30,249,-358
516470171,925,-380,387,-30,249,-358
516475436,625,-308,315,-30,249,-358
516480700,701,-120,990,-30,249,-358
516485965,686,-117,950,-30,249,-358
516491229,590,-149,922,-30,249,-358
516496494,771,-219,111,-30,249,-358
516501759,677,-131,581,-30,249,-358
516507024,693,-164,739,-30,249,-358
516512288,555,66,472,-30,249,-358
516517553,721,-205,968,-30,249,-358
516522818,877,-76,1073,-30,249,-358
516528301,724,-188,679,-30,249,-358
516533566,711,-45,504,-30,249,-358
516538832,615,-46,376,-30,249,-358
516544096,628,-191,-19,-30,249,-358
516549360,732,-262,1431,4,310,-354
516554943,752,-228,958,4,310,-354
516560207,690,-336,494,4,310,-354
516565472,766,-134,571,4,310,-354
516570737,452,-56,1326,4,310,-354
516576195,639,-181,465,4,310,-354
516581460,833,-216,267,4,310,-354
516586725,714,-192,590,4,310,-354
516591990,772,-214,940,4,310,-354
516597254,478,-114,939,4,310,-354
516602519,672,-62,1058,4,310,-354
516607784,629,96,114,4,310,-354
516613049,821,-227,829,4,310,-354
516618314,807,-144,802,4,310,-354
516623578,566,-165,1051,4,310,-354
516629062,670,-160,933,4,310,-354
516634326,664,-209,839,4,310,-354
516639592,778,-161,767,4,310,-354
516644857,678,-252,379,4,310,-354
516650124,763,-69,1067,4,310,-354
516655388,502,0,475,4,310,-354
516660653,675,-160,1129,4,310,-354
516665919,772,-200,861,4,310,-354
516671184,601,-224,-13,4,310,-354
516676449,954,-309,591,4,310,-354
516681713,508,-344,348,4,310,-354
516686978,636,20,949,4,310,-354
516692244,680,-131,1080,4,275,-345
516697827,771,-160,1125,4,275,-345
516703091,681,-165,-416,4,275,-345
516708356,725,-222,793,4,275,-345
516713621,762,-37,1100,4,275,-345
516718887,649,-13,864,4,275,-345
516724370,781,-216,1273,4,275,-345
516729635,762,-187,236,4,275,-345
516734901,676,-123,394,4,275,-345
516740166,718,-167,949,4,275,-345
516745430,630,-23,864,4,275,-345
516750695,783,-272,989,4,275,-345
516755961,822,-357,682,4,275,-345
516761226,668,-325,904,4,275,-345
516766491,800,-136,1145,4,275,-345
516771755,594,7,418,4,275,-345
516777020,774,-222,1163,4,275,-345
516782285,795,-200,979,4,275,-345
516787550,673,-132,317,4,275,-345
516792815,680,-189,557,4,275,-345
516798080,603,9,697,4,275,-345
516803344,669,-55,1137,4,275,-345
516808609,795,-100,348,4,275,-345
516813874,743,-187,596,4,275,-345
516819139,750,-157,549,4,275,-345
516824622,643,-24,733,4,275,-345
516829888,709,-68,783,4,275,-345
516835152,721,-230,1145,-26,315,-363
516840734,750,-239,1044,-26,315,-363
516846000,617,-104,367,-26,315,-363
516851264,683,-47,799,-26,315,-363
516856529,681,-147,809,-26,315,-363
516861794,690,-117,1097,-26,315,-363
516867059,758,-276,1110,-26,315,-363
516872323,673,-20,524,-26,315,-363
516877588,702,-209,762,-26,315,-363
516882854,699,-201,366,-26,315,-363
516888117,817,-249,1228,-26,315,-363
516893382,765,-357,1401,-26,315,-363
516898647,643,-180,199,-26,315,-363
516903912,722,-117,734,-26,315,-363
516909177,692,-186,387,-26,315,-363
516914442,792,-156,1038,-26,315,-363
516919925,814,-272,1106,-26,315,-363
516925190,712,-222,604,-26,315,-363
516930456,713,-109,696,-26,315,-363
516935720,663,-212,418,-26,315,-363
516940985,761,-102,1035,-26,315,-363
516946250,766,-270,1083,-26,315,-363
516951515,640,-134,411,-26,315,-363
516956780,669,-79,912,-26,315,-363
516962045,746,-110,1132,-26,315,-363
516967309,788,-112,966,-26,315,-363
516972574,684,-195,1322,-26,315,-363
516977839,664,-178,387,-52,310,-363
516983421,733,-189,659,-52,310,-363
516988686,686,-266,264,-52,310,-363
516993951,854,-72,1430,-52,310,-363
516999215,719,-233,1372,-52,310,-363
517004479,648,-147,359,-52,310,-363
517009744,736,-136,844,-52,310,-363
517015009,702,-161,1354,-52,310,-363
517020493,789,-313,1096,-52,310,-363
517025758,775,-380,1131,-52,310,-363
517031023,757,-224,881,-52,310,-363
517036287,636,-146,618,-52,310,-363
517041553,767,-228,1226,-52,310,-363
517046817,768,-286,696,-52,310,-363
517052083,665,-254,585,-52,310,-363
517057348,793,-248,1191,-52,310,-363
517062613,608,-98,693,-52,310,-363
517067878,721,-153,1293,-52,310,-363
517073142,745,-123,0,-52,310,-363
517078406,715,-218,352,-52,310,-363
517083671,791,-235,1269,-52,310,-363
517088937,720,-197,1265,-52,310,-363
517094201,515,-155,220,-52,310,-363
517099466,969,-293,666,-52,310,-363
517104731,684,-179,560,-52,310,-363
517109996,593,69,897,-52,310,-363
517115479,707,-206,1016,13,275,-345
517121062,602,-79,470,13,275,-345
517126326,553,-107,699,13,275,-345
517153455,938,-229,590,13,275,-345
517158720,716,-75,595,13,275,-345
517163985,692,-171,950,13,275,-345
517169249,711,-189,725,13,275,-345
517174515,821,-179,90,13,275,-345
517179780,647,-121,837,13,275,-345
517185044,644,-16,811,13,275,-345
517190309,630,-51,294,13,275,-345
517195575,733,-56,334,13,275,-345
517200840,755,-216,1157,13,275,-345
517206104,457,88,863,13,275,-345
517211369,508,-121,69,13,275,-345
517216853,742,-17,394,13,275,-345
517222118,749,-272,558,13,275,-345
517227383,730,-137,751,13,275,-345
517232649,634,-279,1393,13,275,-345
517237914,725,-131,578,13,275,-345
517243179,653,-174,949,13,275,-345
517248443,631,-218,547,13,275,-345
517253707,705,-142,714,13,275,-345
517258973,634,-61,183,-26,293,-354
517264555,604,-122,611,-26,293,-354
517269820,749,-102,999,-26,293,-354
517275085,717,-276,1055,-26,293,-354
517280350,707,-61,465,-26,293,-354
517285615,699,-286,707,-26,293,-354
517290880,786,-158,1112,-26,293,-354
517296145,662,-279,711,-26,293,-354
517301411,759,-132,858,-26,293,-354
517306675,605,-121,722,-26,293,-354
517312160,778,-98,1344,-26,293,-354
517317424,661,-215,-341,-26,293,-354
517322688,716,-153,353,-26,293,-354
517327954,809,-43,1422,-26,293,-354
517333217,679,-107,1009,-26,293,-354
517338482,723,-211,315,-26,293,-354
517343748,924,-201,903,-26,293,-354
517349013,737,-286,706,-26,293,-354
517354277,607,-75,453,-26,293,-354
517359542,710,-145,773,-26,293,-354
517364807,704,-210,799,-26,293,-354
517370071,477,-56,622,-26,293,-354
517375336,659,-115,799,-26,293,-354
517380601,708,-30,375,-26,293,-354
517385867,665,-226,573,-26,293,-354
517391132,728,-140,765,-26,293,-354
517396396,669,-107,1244,-26,293,-354
517401660,632,8,452,-39,315,-354
517407244,585,-154,681,-39,315,-354
517412726,717,-140,878,-39,315,-354
517417991,686,-200,621,-39,315,-354
517423255,637,-182,-328,-39,315,-354
517428520,691,-79,1392,-39,315,-354
517433785,755,-252,1497,-39,315,-354
517439050,605,-229,307,-39,315,-354
517444314,653,-113,523,-39,315,-354
517449579,799,-231,1588,-39,315,-354
517454844,746,-77,27,-39,315,-354
517460109,727,-7,224,-39,315,-354
517465374,823,-241,1308,-39,315,-354
517470639,764,-115,1129,-39,315,-354
517475903,744,-190,-63,-39,315,-354
517481168,870,-106,992,-39,315,-354
517486433,525,-99,1054,-39,315,-354
517491697,543,-105,115,-39,315,-354
517496963,698,-134,420,-39,315,-354
517502228,731,-269,1209,-39,315,-354
517507711,409,-29,1137,-39,315,-354
517512976,555,-87,554,-39,315,-354
517518240,715,-129,848,-39,315,-354
517523504,644,-238,415,-39,315,-354
517528769,666,-232,551,-39,315,-354
517534034,665,-209,-129,-39,315,-354
517539299,719,82,1508,-26,341,-345
517544882,787,-161,1549,-26,341,-345
517550147,715,-169,834,-26,341,-345
517555412,592,-87,444,-26,341,-345
517560676,772,-167,1435,-26,341,-345
517565943,676,-289,546,-26,341,-345
517571207,758,-188,633,-26,341,-345
517576471,802,-144,1130,-26,341,-345
517581735,709,-161,1000,-26,341,-345
517587000,835,-138,635,-26,341,-345
517592265,572,-80,812,-26,341,-345
517597529,555,-52,676,-26,341,-345
517602794,671,-209,612,-26,341,-345
517608470,795,-236,468,-26,341,-345
517613734,732,-222,762,-26,341,-345
517618998,593,-184,1170,-26,341,-345
517624262,700,-82,755,-26,341,-345
517629527,532,-153,630,-26,341,-345
517634792,575,-118,563,-26,341,-345
517640057,694,-48,802,-26,341,-345
517645321,765,-198,1477,-26,341,-345
517650586,770,-143,954,-26,341,-345
517655851,716,-178,465,-26,341,-345
517661116,853,-189,1451,-26,341,-345
517666381,776,-167,1106,-26,341,-345
517671646,767,-188,239,-26,341,-345
517676911,615,28,1127,-26,341,-345
517682176,534,-82,560,-21,183,-363
517687758,553,-63,220,-21,183,-363
517693023,713,-168,776,-21,183,-363
517698287,687,-109,829,-21,183,-363
517703770,593,-129,811,-21,183,-363
517709035,706,-9,640,-21,183,-363
517714299,584,-299,992,-21,183,-363
517719564,549,-180,432,-21,183,-363
517724829,723,-119,559,-21,183,-363
517730093,779,-214,1228,-21,183,-363
517735358,759,-235,399,-21,183,-363
517740623,653,-194,296,-21,183,-363
517745889,840,-109,1179,-21,183,-363
517751153,759,-82,1052,-21,183,-363
517756418,830,-143,248,-21,183,-363
517761682,626,43,775,-21,183,-363
517766947,547,-26,509,-21,183,-363
517772212,703,-153,656,-21,183,-363
517777477,712,-208,558,-21,183,-363
517782741,646,-82,708,-21,183,-363
517788007,679,-219,437,-21,183,-363
517793271,625,-67,830,-21,183,-363
517798535,782,-152,1206,-21,183,-363
517804019,735,-202,886,-21,183,-363
517809284,676,-102,515,-21,183,-363
517814549,710,-132,1036,-21,183,-363
517819814,810,-74,307,-21,183,-363
517825079,681,-113,677,-26,214,-363
517830661,779,-96,967,-26,214,-363
517835926,716,-94,882,-26,214,-363
517841190,800,-160,794,-26,214,-363
517846454,514,17,522,-26,214,-363
517851718,684,-208,801,-26,214,-363
517856984,668,-120,723,-26,214,-363
517862248,601,-125,125,-26,214,-363
517867513,673,-156,829,-26,214,-363
517872778,746,-168,983,-26,214,-363
517878044,721,-96,901,-26,214,-363
517883308,656,-148,979,-26,214,-363
517888574,698,-92,711,-26,214,-363
517893838,691,-164,685,-26,214,-363
517899321,680,-109,362,-26,214,-363
517904586,870,-210,832,-26,214,-363
517909851,544,-186,1013,-26,214,-363
517915115,529,-3,119,-26,214,-363
517920380,720,-183,943,-26,214,-363
517925645,740,-201,1025,-26,214,-363
517930911,595,-144,769,-26,214,-363
517936176,623,-268,592,-26,214,-363
517941441,615,-247,826,-26,214,-363
517946705,710,-214,906,-26,214,-363
517951970,688,-103,536,-26,214,-363
517957235,646,-94,946,-26,214,-363
517962499,743,-177,437,-13,376,-354
517968081,651,-92,413,-13,376,-354
517973346,780,-120,1140,-13,376,-354
517978611,667,-132,772,-13,376,-354
517983877,730,-191,564,-13,376,-354
517989141,556,-56,632,-13,376,-354
517994405,680,-193,896,-13,376,-354
517999889,656,-131,630,-13,376,-354
518005153,712,-208,574,-13,376,-354
518010418,698,-159,800,-13,376,-354
518015683,689,-251,582,-13,376,-354
518020949,654,-128,864,-13,376,-354
518026213,795,-265,819,-13,376,-354
518031477,687,-162,668,-13,376,-354
518036741,709,-171,696,-13,376,-354
518042006,586,-118,355,-13,376,-354
518047270,875,-117,470,-13,376,-354
518052535,699,4,601,-13,376,-354
518057800,534,-7,338,-13,376,-354
518063065,695,-131,917,-13,376,-354
518068329,674,-96,744,-13,376,-354
518073594,653,-145,638,-13,376,-354
518078859,691,-130,649,-13,376,-354
518084125,726,-196,860,-13,376,-354
518089389,741,-190,693,-13,376,-354
518094872,751,-210,799,-13,376,-354
518100137,748,-125,1159,-13,376,-354
518105402,750,-173,806,-61,358,-341
518110985,695,-186,555,-61,358,-341
518116249,706,-112,870,-61,358,-341
518121514,670,-98,595,-61,358,-341
518126779,712,-121,702,-61,358,-341
518153455,678,-126,795,-61,358,-341
518158721,652,-177,937,-61,358,-341
518163986,709,-108,637,-61,358,-341
518169250,656,-118,857,-61,358,-341
518174515,708,-187,817,-61,358,-341
518179780,701,-149,580,-61,358,-341
518185046,756,-76,1064,-61,358,-341
518190310,707,-249,924,-61,358,-341
518195793,656,-186,434,-61,358,-341
518201058,744,-101,854,-61,358,-341
518206322,665,0,636,-61,358,-341
518211587,677,-139,377,-61,358,-341
518216852,656,-13,663,-61,358,-341
518222116,513,54,759,-61,358,-341
518227381,744,55,218,-61,358,-341
518232646,712,-216,391,-61,358,-341
518237912,733,-202,979,-61,358,-341
518243176,666,-184,957,-61,358,-341
518248441,717,-14,489,-43,196,-367
518254023,640,-175,577,-43,196,-367
518259287,651,-155,813,-43,196,-367
518264552,697,-106,625,-43,196,-367
518269817,779,-150,1160,-43,196,-367
518275081,834,-398,1360,-43,196,-367
518280346,656,1,271,-43,196,-367
518285610,797,-129,1110,-43,196,-367
518291095,634,-69,643,-43,196,-367
518296360,717,-147,401,-43,196,-367
518301625,883,-43,567,-43,196,-367
518306891,554,-254,448,-43,196,-367
518312155,650,-169,920,-43,196,-367
518317420,742,-220,505,-43,196,-367
518322685,756,-169,749,-43,196,-367
518327950,690,-138,1013,-43,196,-367
518333214,548,-125,600,-43,196,-367
518338478,790,-255,335,-43,196,-367
518343743,668,-228,576,-43,196,-367
518349008,651,-149,757,-43,196,-367
518354272,758,-48,1529,-43,196,-367
518359537,696,-56,333,-43,196,-367
518364802,698,-129,619,-43,196,-367
518370068,930,-11,1280,-43,196,-367
518375332,691,-197,801,-43,196,-367
518380597,833,-190,803,-43,196,-367
518385863,491,-89,1000,-43,196,-367
518391347,561,-279,623,-70,336,-354
518396930,639,-56,280,-70,336,-354
518402194,777,-240,714,-70,336,-354
518407459,647,-221,587,-70,336,-354
518412724,669,-111,306,-70,336,-354
518417989,663,-198,479,-70,336,-354
518423253,746,-214,1109,-70,336,-354
518428518,597,-123,736,-70,336,-354
518433783,595,-64,401,-70,336,-354
518439047,752,-145,1481,-70,336,-354
518444312,805,-305,82,-70,336,-354
518449579,712,-219,642,-70,336,-354
518454844,805,-71,919,-70,336,-354
518460108,700,-194,868,-70,336,-354
518465372,726,-137,535,-70,336,-354
518470637,571,-11,968,-70,336,-354
518475903,683,-19,798,-70,336,-354
518481168,636,-141,339,-70,336,-354
518486652,667,-123,617,-70,336,-354
518491917,679,-184,915,-70,336,-354
518497182,592,-257,139,-70,336,-354
518502447,702,-43,929,-70,336,-354
518507711,747,-219,1185,-70,336,-354
518512977,739,-50,525,-70,336,-354
518518240,650,-146,630,-70,336,-354
518523505,625,-72,984,-70,336,-354
518528769,873,-196,632,-100,240,-350
518534352,683,-168,800,-100,240,-350
518539617,788,-136,1191,-100,240,-350
518544883,751,-221,817,-100,240,-350
518550147,815,-200,609,-100,240,-350
518555412,459,-48,820,-100,240,-350
518560677,649,-195,770,-100,240,-350
518565943,666,-163,418,-100,240,-350
518571207,622,-160,412,-100,240,-350
518576471,681,-91,785,-100,240,-350
518581736,625,-284,422,-100,240,-350
518587219,580,-181,811,-100,240,-350
518592484,814,-225,1212,-100,240,-350
518597749,647,-79,667,-100,240,-350
518603015,647,-4,413,-100,240,-350
518608280,667,-72,731,-100,240,-350
518613545,739,-126,412,-100,240,-350
518618809,747,-135,899,-100,240,-350
518624074,763,-69,763,-100,240,-350
518629339,719,-169,991,-100,240,-350
518634604,810,-193,849,-100,240,-350
518639870,578,-66,657,-100,240,-350
518645327,669,-138,923,-100,240,-350
518650593,743,-125,741,-100,240,-350
518655858,660,-251,289,-100,240,-350
518661122,675,-177,652,-100,240,-350
518666387,686,-165,360,-100,240,-350
518671651,629,-106,652,-61,288,-350
518677234,642,-169,777,-61,288,-350
518682717,674,-203,877,-61,288,-350
518687982,704,-135,584,-61,288,-350
518693247,699,-168,753,-61,288,-350
518698511,710,-196,1137,-61,288,-350
518703779,656,-119,558,-61,288,-350
518709044,655,-148,512,-61,288,-350
518714307,678,-7,734,-61,288,-350
518719573,588,-120,604,-61,288,-350
518724837,843,-231,702,-61,288,-350
518730101,728,-86,786,-61,288,-350
518735366,678,-119,790,-61,288,-350
518740630,771,-199,817,-61,288,-350
518745896,723,-179,693,-61,288,-350
518751161,571,-57,814,-61,288,-350
518756425,685,-40,756,-61,288,-350
518761690,659,-109,324,-61,288,-350
518766955,609,-107,709,-61,288,-350
518772219,671,-126,872,-61,288,-350
518777484,634,-196,440,-61,288,-350
518782968,631,-156,913,-61,288,-350
518788232,701,-134,1010,-61,288,-350
518793496,697,-183,757,-61,288,-350
518798761,637,-52,297,-61,288,-350
518804025,810,-223,1030,-61,288,-350
518809290,769,-125,850,-61,288,-350
518814556,660,-246,628,-39,297,-354
518820138,653,-132,554,-39,297,-354
518825403,717,-67,880,-39,297,-354
518830667,665,-29,829,-39,297,-354
518835933,722,-237,62,-39,297,-354
518841197,787,-231,811,-39,297,-354
518846461,742,-60,835,-39,297,-354
518851726,706,-195,1003,-39,297,-354
518856991,845,-259,472,-39,297,-354
518862255,746,-197,1178,-39,297,-354
518867519,566,-120,410,-39,297,-354
518872785,647,-95,471,-39,297,-354
518878049,714,-178,324,-39,297,-354
518883532,795,-198,803,-39,297,-354
518888798,414,125,979,-39,297,-354
518894063,634,-45,855,-39,297,-354
518899327,674,-177,795,-39,297,-354
518904591,610,-150,364,-39,297,-354
518909857,747,-269,789,-39,297,-354
518915122,630,-224,489,-39,297,-354
518920387,664,-135,1160,-39,297,-354
518925652,672,-69,1103,-39,297,-354
518930918,688,-287,672,-39,297,-354
518936183,804,-6,536,-39,297,-354
518941448,853,-280,164,-39,297,-354
518946712,946,-279,1503,-39,297,-354
518951978,635,-379,1079,-39,297,-354
518957242,818,-227,1002,-30,297,-363
518962824,584,-164,867,-30,297,-363
518968088,776,41,1443,-30,297,-363
518973352,746,-220,-489,-30,297,-363
518978835,838,-79,480,-30,297,-363
518984099,880,-241,1699,-30,297,-363
518989364,738,-98,1274,-30,297,-363
518994629,593,-270,-228,-30,297,-363
518999895,732,30,1273,-30,297,-363
519005160,618,-132,487,-30,297,-363
519010424,676,-34,375,-30,297,-363
519015689,776,-30,495,-30,297,-363
519020955,656,-88,1112,-30,297,-363
519026219,455,-75,1364,-30,297,-363
519031484,735,-117,383,-30,297,-363
519036748,721,-221,950,-30,297,-363
519042013,651,-179,616,-30,297,-363
519047277,724,-201,400,-30,297,-363
519052542,727,-185,-21,-30,297,-363
519057808,717,-74,1686,-30,297,-363
519063075,775,-208,1370,-30,297,-363
519068341,637,-61,207,-30,297,-363
519073607,648,-31,349,-30,297,-363
519079092,758,-233,1274,-30,297,-363
519084357,668,-265,232,-30,297,-363
519089623,639,-163,587,-30,297,-363
519094890,849,-209,1425,8,280,-350
519100474,663,-157,859,8,280,-350
519105738,540,-99,681,8,280,-350
519111004,706,-345,-155,8,280,-350
519116270,762,-81,887,8,280,-350
519121537,748,-139,963,8,280,-350
519126802,611,-41,467,8,280,-350
519153455,689,-182,387,8,280,-350
519158719,670,-167,1070,8,280,-350
519163985,419,23,1242,8,280,-350
519169251,719,-167,372,8,280,-350
519174735,740,-108,746,8,280,-350
519180000,657,-243,552,8,280,-350
519185266,675,-225,715,8,280,-350
519190531,697,-113,354,8,280,-350
519195795,687,-273,1422,8,280,-350
519201060,672,-153,983,8,280,-350
519206325,642,-100,247,8,280,-350
519211589,676,149,6,8,280,-350
519216854,849,-289,1675,8,280,-350
519222119,876,-308,1163,8,280,-350
519227384,721,128,-163,8,280,-350
519232649,952,-175,1560,8,280,-350
519237915,695,-136,762,-17,306,-350
519243497,740,8,1324,-17,306,-350
519248761,750,-237,-545,-17,306,-350
519254026,695,-207,632,-17,306,-350
519259289,667,101,210,-17,306,-350
519264555,719,-146,1098,-17,306,-350
519269819,898,-124,900,-17,306,-350
519275303,547,-143,1126,-17,306,-350
519280569,464,100,209,-17,306,-350
519285834,732,-276,467,-17,306,-350
519291098,736,-231,152,-17,306,-350
519296362,652,-107,753,-17,306,-350
519301627,521,-48,1290,-17,306,-350
519306894,658,40,697,-17,306,-350
519312159,559,-87,683,-17,306,-350
519317424,593,-138,1073,-17,306,-350
519322688,806,-259,809,-17,306,-350
519327955,624,-126,-799,-17,306,-350
519333219,979,-225,1998,-17,306,-350
519338483,849,-279,1998,-17,306,-350
519343748,666,-13,226,-17,306,-350
519349013,618,-91,628,-17,306,-350
519354276,539,-61,937,-17,306,-350
519359541,702,-323,-662,-17,306,-350
519364806,773,-88,560,-17,306,-350
519370289,904,-224,1823,-17,306,-350
519375554,720,-109,1479,-17,306,-350
519380818,886,-182,380,-35,323,-354
519386400,772,-80,313,-35,323,-354
519391665,591,-202,618,-35,323,-354
519396931,564,45,89,-35,323,-354
519402195,719,-198,143,-35,323,-354
519407459,718,15,1190,-35,323,-354
519412724,534,-113,1492,-35,323,-354
519417988,715,-413,372,-35,323,-354
519423253,557,-5,846,-35,323,-354
519428518,439,-170,422,-35,323,-354
519433783,733,23,139,-35,323,-354
519439048,613,-236,-291,-35,323,-354
519444312,972,-152,1503,-35,323,-354
519449576,795,-140,1237,-35,323,-354
519454842,744,-333,1101,-35,323,-354
519460106,544,-246,1156,-35,323,-354
519465371,583,-248,874,-35,323,-354
519470854,856,-38,-66,-35,323,-354
519476119,865,-127,1211,-35,323,-354
519481384,712,-166,1562,-35,323,-354
519486649,742,-289,496,-35,323,-354
519491914,817,-288,1327,-35,323,-354
519497180,411,-59,1364,-35,323,-354
519502444,478,-4,500,-35,323,-354
519507709,697,-153,404,-35,323,-354
519512974,655,-185,438,-35,323,-354
519518238,724,-149,623,-52,188,-358
519523820,591,-174,-371,-52,188,-358
519529086,758,-137,1488,-52,188,-358
519534350,826,-365,1812,-52,188,-358
519539615,600,-42,99,-52,188,-358
519544880,566,-105,409,-52,188,-358
519550145,686,-119,1431,-52,188,-358
519555410,754,-264,-285,-52,188,-358
519560675,765,-104,750,-52,188,-358
519566159,896,-213,1725,-52,188,-358
519571424,765,-144,1315,-52,188,-358
519576689,812,-285,400,-52,188,-358
519581955,716,-57,1271,-52,188,-358
519587218,485,-150,576,-52,188,-358
519592483,577,-123,-184,-52,188,-358
519597748,782,-122,793,-52,188,-358
519603013,646,-46,508,-52,188,-358
